Accel_X(g),Accel_Y(g),Accel_Z(g),Gyro_X(dps),Gyro_Y(dps),Gyro_Z(dps),Temperature
0.14,0.94,-0.07,-0.02,0.00,0.05,249
0.14,0.94,-0.07,-0.04,0.06,0.03,249
0.14,0.94,-0.07,-0.04,0.02,-0.03,250
0.14,0.94,-0.07,-0.10,-0.07,-0.07,249
0.14,0.94,-0.07,-0.10,-0.05,-0.07,249
0.14,0.94,-0.07,-0.10,-0.03,-0.11,250
0.14,0.94,-0.07,-0.09,-0.04,-0.17,249
0.14,0.94,-0.07,-0.05,-0.05,-0.18,249
0.14,0.94,-0.07,0.00,-0.01,-0.12,249
0.14,0.94,-0.07,0.04,0.07,0.01,249
0.14,0.94,-0.07,0.02,0.05,0.07,249
0.14,0.94,-0.07,0.05,0.04,0.09,249
0.14,0.94,-0.07,0.11,0.05,0.14,249
0.13,0.94,-0.07,0.11,0.03,0.24,249
0.14,0.94,-0.07,0.10,0.01,0.24,249
0.14,0.94,-0.07,0.10,0.06,0.19,250
0.14,0.94,-0.07,0.07,0.01,0.11,249
0.14,0.94,-0.07,0.10,-0.04,0.03,249
0.13,0.94,-0.07,-0.01,-0.01,0.08,250
0.14,0.94,-0.07,-0.16,-0.07,-0.02,250
0.14,0.94,-0.07,-0.16,-0.30,-0.49,249
0.14,0.94,-0.07,0.13,0.07,-0.49,249
0.13,0.94,-0.07,-0.01,0.34,0.16,249
0.14,0.94,-0.07,-0.19,-0.20,0.17,250
0.14,0.94,-0.07,0.38,0.02,-0.02,249
0.13,0.94,-0.07,0.47,0.52,0.23,250
0.14,0.94,-0.07,0.15,0.15,0.44,249
0.14,0.94,-0.07,0.17,-0.04,0.60,250
0.14,0.94,-0.07,0.24,0.30,0.57,249
0.14,0.94,-0.07,0.03,0.21,0.28,249
0.14,0.94,-0.07,-0.19,-0.28,-0.06,249
0.14,0.94,-0.07,-0.16,-0.30,-0.27,249
0.14,0.94,-0.07,-0.39,-0.08,-0.28,249
0.14,0.94,-0.07,-0.54,-0.30,-0.47,249
0.14,0.94,-0.07,-0.14,-0.42,-0.89,249
0.14,0.94,-0.07,-0.20,0.11,-0.68,249
0.14,0.94,-0.06,-0.78,-0.09,-0.65,249
0.14,0.94,-0.06,-0.36,-0.08,-1.04,249
0.13,0.94,-0.07,0.02,0.70,-0.62,249
0.13,0.94,-0.07,-0.34,0.27,-0.11,249
0.14,0.94,-0.07,-0.12,-0.38,0.06,249
0.14,0.94,-0.07,0.25,-0.27,0.22,250
0.13,0.94,-0.07,0.30,0.00,0.41,249
0.14,0.94,-0.07,0.42,-0.04,0.71,249
0.14,0.94,-0.07,0.70,0.07,0.98,249
0.13,0.94,-0.07,0.67,0.42,1.22,249
0.14,0.94,-0.07,0.43,0.43,1.19,249
0.14,0.94,-0.07,0.44,0.16,0.72,249
0.14,0.94,-0.07,0.37,0.17,0.35,249
0.14,0.94,-0.07,0.00,0.18,0.17,249
0.14,0.94,-0.07,-0.21,-0.13,-0.30,249
0.14,0.94,-0.07,-0.19,-0.21,-0.72,249
0.14,0.94,-0.07,-0.39,-0.09,-0.67,249
0.14,0.94,-0.07,-0.55,-0.24,-0.62,250
0.14,0.94,-0.07,-0.44,-0.36,-0.70,249
0.14,0.94,-0.07,-0.32,-0.19,-0.66,249
0.14,0.94,-0.07,-0.21,-0.11,-0.45,249
0.14,0.94,-0.07,-0.06,-0.07,-0.14,249
0.13,0.94,-0.07,-0.01,0.03,0.14,249
0.14,0.94,-0.07,-0.03,0.08,0.27,249
0.14,0.94,-0.07,0.04,0.05,0.24,250
0.14,0.94,-0.07,0.10,-0.02,0.15,249
0.14,0.94,-0.07,0.07,-0.02,0.17,249
0.14,0.94,-0.07,0.04,-0.01,0.14,249
0.14,0.94,-0.07,0.07,-0.03,0.01,249
0.14,0.94,-0.07,0.04,0.04,0.00,249
0.14,0.94,-0.07,0.01,0.07,-0.00,249
0.14,0.94,-0.07,0.07,0.01,-0.05,250
0.14,0.94,-0.07,0.13,-0.02,0.01,249
0.14,0.94,-0.07,0.10,0.05,0.18,250
0.13,0.94,-0.07,0.07,0.08,0.30,249
0.14,0.94,-0.07,0.11,0.01,0.34,249
0.14,0.94,-0.07,0.13,0.03,0.30,249
0.14,0.94,-0.07,0.08,0.02,0.22,250
0.14,0.94,-0.07,0.02,-0.04,0.13,249
0.14,0.94,-0.07,-0.06,-0.01,0.06,249
0.14,0.94,-0.07,-0.13,-0.02,-0.07,250
0.14,0.94,-0.07,-0.16,-0.12,-0.30,249
0.14,0.94,-0.07,-0.14,-0.09,-0.42,249
0.14,0.94,-0.07,-0.18,-0.02,-0.42,249
0.14,0.94,-0.07,-0.17,-0.07,-0.32,249
0.14,0.94,-0.07,-0.08,-0.06,-0.24,249
0.14,0.94,-0.07,-0.00,0.03,-0.18,249
0.14,0.94,-0.07,0.09,0.03,-0.03,249
0.14,0.94,-0.07,0.15,0.03,0.13,249
0.13,0.94,-0.07,0.18,0.10,0.36,249
0.14,0.94,-0.07,0.20,0.07,0.47,250
0.14,0.94,-0.07,0.20,0.01,0.40,250
0.14,0.94,-0.07,0.19,0.01,0.34,250
0.14,0.94,-0.07,0.12,0.01,0.27,249
0.14,0.94,-0.07,0.01,-0.06,0.11,250
0.14,0.94,-0.07,-0.01,-0.07,-0.07,249
0.14,0.94,-0.07,-0.04,0.01,-0.18,249
0.14,0.94,-0.07,-0.12,-0.03,-0.35,249
0.14,0.94,-0.07,-0.13,-0.06,-0.41,249
0.14,0.94,-0.07,-0.14,0.01,-0.34,249
0.14,0.94,-0.07,-0.15,0.00,-0.29,250
0.14,0.94,-0.07,-0.11,-0.05,-0.16,249
0.14,0.94,-0.07,-0.03,-0.03,-0.08,249
0.14,0.94,-0.07,0.01,-0.03,-0.02,249
0.14,0.94,-0.07,0.01,-0.05,0.06,249
0.14,0.94,-0.07,0.04,-0.02,0.17,249
0.13,0.94,-0.07,0.06,0.01,0.29,249
0.14,0.94,-0.07,0.10,0.01,0.32,249
0.14,0.94,-0.07,0.08,0.02,0.19,250
0.14,0.94,-0.07,0.05,0.04,0.07,249
0.14,0.94,-0.07,0.02,0.02,-0.01,250
0.14,0.94,-0.07,-0.01,0.00,-0.06,249
0.14,0.94,-0.07,-0.00,0.03,-0.13,249
0.14,0.94,-0.07,-0.01,0.01,-0.14,250
0.14,0.94,-0.07,-0.04,0.00,-0.07,249
0.14,0.94,-0.07,-0.01,-0.00,0.02,250
0.14,0.94,-0.07,0.05,-0.04,0.07,250
0.14,0.94,-0.07,0.05,-0.04,0.07,249
0.14,0.94,-0.07,0.07,-0.04,0.09,249
0.14,0.94,-0.07,0.10,-0.03,0.13,249
0.14,0.94,-0.07,0.07,-0.01,0.15,249
0.14,0.94,-0.07,0.04,0.04,0.15,250
0.14,0.94,-0.07,0.00,0.05,0.07,249
0.14,0.94,-0.07,-0.05,0.01,-0.07,249
0.14,0.94,-0.07,-0.11,-0.03,-0.23,249
0.14,0.94,-0.07,-0.15,-0.04,-0.25,249
0.14,0.94,-0.07,-0.19,-0.07,-0.25,249
0.14,0.94,-0.07,-0.11,-0.10,-0.32,249
0.14,0.94,-0.07,-0.04,-0.05,-0.30,249
0.14,0.94,-0.07,-0.03,-0.00,-0.18,249
0.14,0.94,-0.07,-0.00,0.01,0.01,249
0.14,0.94,-0.07,0.02,0.03,0.18,249
0.14,0.94,-0.07,0.10,0.05,0.29,249
0.14,0.94,-0.07,0.13,0.05,0.32,249
0.14,0.94,-0.07,0.09,0.05,0.29,249
0.14,0.94,-0.07,0.09,0.02,0.23,249
0.14,0.94,-0.07,0.04,0.01,0.14,249
0.14,0.94,-0.07,-0.04,-0.00,0.04,249
0.14,0.94,-0.07,-0.06,-0.05,-0.13,250
0.14,0.94,-0.07,-0.11,-0.07,-0.25,249
0.14,0.94,-0.07,-0.13,-0.03,-0.29,249
0.14,0.94,-0.07,-0.07,0.03,-0.23,249
0.14,0.94,-0.07,-0.03,0.00,-0.11,250
0.14,0.94,-0.07,-0.00,-0.04,-0.06,249
0.14,0.94,-0.07,0.05,-0.01,-0.03,249
0.14,0.94,-0.07,0.12,0.02,0.05,250
0.14,0.94,-0.07,0.15,0.05,0.18,250
0.14,0.94,-0.07,0.15,0.05,0.32,250
0.14,0.94,-0.07,0.13,0.04,0.30,250
0.14,0.94,-0.07,0.04,0.01,0.15,249
0.14,0.94,-0.07,-0.02,-0.02,0.00,249
0.14,0.94,-0.07,-0.03,-0.04,-0.07,249
0.14,0.94,-0.07,-0.06,-0.09,-0.12,249
0.14,0.94,-0.07,-0.11,-0.11,-0.21,249
0.14,0.94,-0.07,-0.14,-0.06,-0.30,249
0.14,0.94,-0.07,-0.13,-0.03,-0.35,249
0.14,0.94,-0.07,-0.13,-0.04,-0.32,249
0.14,0.94,-0.07,-0.09,-0.01,-0.19,249
0.14,0.94,-0.07,-0.02,-0.00,-0.02,249
0.14,0.94,-0.07,0.05,0.00,0.11,250
0.14,0.94,-0.07,0.11,-0.00,0.14,249
0.14,0.94,-0.07,0.13,-0.01,0.15,249
0.14,0.94,-0.07,0.08,-0.01,0.21,249
0.14,0.94,-0.07,0.07,-0.00,0.24,249
0.14,0.94,-0.07,0.07,0.01,0.19,250
0.14,0.94,-0.07,0.03,0.01,0.08,249
0.14,0.94,-0.07,0.01,0.02,0.02,249
0.14,0.94,-0.07,-0.01,-0.00,-0.01,250
0.14,0.94,-0.07,-0.07,-0.02,-0.08,250
0.14,0.94,-0.07,-0.11,-0.00,-0.15,249
0.14,0.94,-0.07,-0.09,-0.00,-0.16,250
0.14,0.94,-0.07,-0.06,-0.01,-0.21,249
0.14,0.94,-0.07,-0.06,-0.03,-0.15,250
0.14,0.94,-0.07,0.00,-0.02,0.00,249
0.14,0.94,-0.07,0.04,-0.00,0.09,249
0.14,0.94,-0.07,0.04,-0.02,0.12,249
0.14,0.94,-0.07,0.07,0.04,0.14,249
0.14,0.94,-0.07,0.07,0.04,0.18,249
0.14,0.94,-0.07,0.04,-0.01,0.16,249
0.14,0.94,-0.07,0.04,-0.01,0.11,249
0.14,0.94,-0.07,0.02,-0.04,0.03,249
0.14,0.94,-0.07,-0.04,-0.05,-0.09,249
0.14,0.94,-0.07,-0.03,-0.03,-0.12,249
0.14,0.94,-0.07,-0.03,-0.00,-0.07,250
0.14,0.94,-0.07,-0.04,-0.02,-0.07,250
0.14,0.94,-0.07,-0.05,-0.03,-0.10,249
0.14,0.94,-0.07,-0.01,-0.02,-0.12,249
0.14,0.94,-0.07,0.01,-0.03,-0.08,249
0.14,0.94,-0.07,0.00,-0.03,0.04,249
0.14,0.94,-0.07,-0.02,-0.02,0.09,250
0.14,0.94,-0.07,-0.01,0.00,0.10,249
0.14,0.94,-0.07,0.02,-0.05,0.04,249
0.14,0.94,-0.07,0.01,-0.02,-0.05,249
0.14,0.94,-0.07,-0.02,0.02,-0.02,250
0.14,0.94,-0.07,-0.08,-0.02,0.01,249
0.14,0.94,-0.07,-0.10,-0.01,-0.05,250
0.14,0.94,-0.07,-0.06,-0.05,-0.16,249
0.14,0.94,-0.07,-0.02,-0.06,-0.19,249
0.14,0.94,-0.07,-0.00,-0.04,-0.10,249
0.14,0.94,-0.07,0.04,-0.02,0.06,249
0.14,0.94,-0.07,0.12,0.03,0.18,249
0.14,0.94,-0.07,0.17,0.08,0.22,249
0.14,0.94,-0.07,0.16,0.10,0.28,250
0.14,0.94,-0.07,0.14,0.08,0.29,249
0.14,0.94,-0.07,0.14,0.03,0.26,249
0.14,0.94,-0.07,0.08,0.01,0.17,249
0.14,0.94,-0.07,0.01,0.03,0.06,250
0.14,0.94,-0.07,-0.04,-0.01,-0.07,249
0.14,0.94,-0.07,-0.07,-0.08,-0.18,249
0.14,0.94,-0.07,-0.11,-0.09,-0.23,249
0.14,0.94,-0.07,-0.11,-0.06,-0.23,249
0.14,0.94,-0.07,-0.11,0.00,-0.21,249
0.14,0.94,-0.07,-0.08,-0.02,-0.22,249
0.14,0.94,-0.07,-0.03,-0.08,-0.22,250
0.13,0.94,-0.07,0.00,-0.02,-0.10,249
0.13,0.94,-0.07,0.06,0.02,0.07,250
0.13,0.94,-0.07,0.05,0.00,0.17,249
0.14,0.94,-0.07,0.03,0.02,0.19,249
0.14,0.94,-0.07,0.04,0.06,0.16,249
0.14,0.94,-0.07,0.04,0.03,0.12,249
0.14,0.94,-0.07,0.01,-0.03,0.09,250
0.14,0.94,-0.07,-0.01,-0.01,0.07,249
0.14,0.94,-0.07,-0.01,0.02,0.02,250
0.14,0.94,-0.07,-0.02,-0.02,-0.10,250
0.14,0.94,-0.07,-0.04,-0.02,-0.15,249
0.14,0.94,-0.07,-0.08,-0.01,-0.13,250
0.14,0.94,-0.07,-0.11,-0.05,-0.14,249
0.13,0.94,-0.07,-0.06,-0.03,-0.14,249
0.14,0.94,-0.07,0.03,0.04,-0.07,249
0.14,0.94,-0.07,0.05,0.05,0.03,250
0.14,0.94,-0.07,0.05,0.07,0.12,250
0.14,0.94,-0.07,0.07,0.08,0.14,249
0.13,0.94,-0.07,0.08,0.02,0.09,249
0.14,0.94,-0.07,0.05,-0.01,0.09,249
0.14,0.94,-0.07,0.07,0.01,0.16,249
0.14,0.94,-0.07,0.08,0.00,0.16,249
0.14,0.94,-0.07,0.04,0.01,0.05,249
0.14,0.94,-0.07,0.02,0.02,-0.02,249
0.14,0.94,-0.07,0.02,-0.01,-0.05,250
0.14,0.94,-0.07,-0.01,-0.03,-0.10,249
0.14,0.94,-0.07,-0.01,0.00,-0.09,249
0.14,0.94,-0.07,-0.03,0.01,-0.08,249
0.14,0.94,-0.07,-0.06,0.00,-0.05,249
0.14,0.94,-0.07,-0.05,-0.01,-0.07,249
0.14,0.94,-0.07,-0.03,-0.04,-0.08,250
0.14,0.94,-0.07,-0.01,-0.01,-0.02,249
0.14,0.94,-0.07,0.01,0.02,0.08,250
0.14,0.94,-0.07,0.02,0.01,0.10,249
0.14,0.94,-0.07,-0.01,0.02,0.06,249
0.14,0.94,-0.07,-0.05,0.01,-0.05,249
0.14,0.94,-0.07,-0.04,-0.00,-0.09,249
0.14,0.94,-0.07,-0.04,0.01,-0.07,249
0.14,0.94,-0.07,-0.07,-0.03,-0.06,250
0.14,0.94,-0.07,-0.08,-0.06,-0.09,250
0.13,0.94,-0.07,-0.06,-0.04,-0.15,249
0.14,0.94,-0.07,0.01,-0.00,-0.11,250
0.14,0.94,-0.07,0.01,0.02,-0.01,249
0.14,0.94,-0.07,0.04,0.03,0.09,249
0.14,0.94,-0.07,0.06,0.02,0.12,249
0.14,0.94,-0.07,0.05,0.01,0.11,249
0.13,0.94,-0.07,0.09,0.03,0.13,249
0.14,0.94,-0.07,0.13,0.05,0.18,249
0.14,0.94,-0.07,0.10,0.02,0.16,249
0.14,0.94,-0.07,0.06,0.02,0.07,249
0.14,0.94,-0.07,0.03,0.00,-0.03,249
0.14,0.94,-0.07,-0.04,-0.05,-0.09,249
0.14,0.94,-0.07,-0.09,-0.04,-0.09,249
0.14,0.94,-0.07,-0.10,-0.00,-0.07,249
0.14,0.94,-0.07,-0.04,-0.00,-0.07,249
0.14,0.94,-0.07,-0.01,-0.00,-0.08,250
0.14,0.94,-0.07,-0.01,0.00,-0.10,249
0.14,0.94,-0.07,0.02,0.03,-0.08,249
0.14,0.94,-0.07,-0.00,0.04,0.04,249
0.14,0.94,-0.07,0.02,0.03,0.11,249
0.14,0.94,-0.07,0.05,0.01,0.08,250
0.14,0.94,-0.07,0.04,-0.02,0.05,249
0.14,0.94,-0.07,0.01,-0.00,0.04,249
0.14,0.94,-0.07,0.02,0.02,0.04,249
0.14,0.94,-0.07,0.00,0.03,0.01,249
0.14,0.94,-0.07,-0.03,0.01,-0.09,249
0.14,0.94,-0.07,0.00,-0.00,-0.17,249
0.14,0.94,-0.07,-0.03,-0.02,-0.22,249
0.14,0.94,-0.07,-0.07,-0.05,-0.20,249
0.14,0.94,-0.07,-0.05,-0.06,-0.15,249
0.14,0.94,-0.07,-0.03,-0.04,-0.09,249
0.14,0.94,-0.07,-0.01,-0.05,-0.04,249
0.14,0.94,-0.07,0.00,-0.04,0.01,249
0.14,0.94,-0.07,0.07,-0.01,0.09,249
0.14,0.94,-0.07,0.09,0.03,0.17,250
0.14,0.94,-0.07,0.06,0.07,0.20,250
0.14,0.94,-0.07,0.06,0.02,0.17,249
0.14,0.94,-0.07,0.07,-0.04,0.12,249
0.14,0.94,-0.07,0.06,-0.04,0.11,249
0.14,0.94,-0.07,0.04,-0.01,0.11,250
0.14,0.94,-0.07,0.02,0.02,0.05,250
0.14,0.94,-0.07,0.02,0.00,-0.06,249
0.14,0.94,-0.07,0.00,-0.04,-0.13,250
0.14,0.94,-0.07,-0.03,-0.03,-0.09,249
0.14,0.94,-0.07,0.00,-0.00,-0.04,249
0.14,0.94,-0.07,0.00,-0.02,-0.03,250
0.14,0.94,-0.07,-0.01,-0.00,-0.05,250
0.14,0.94,-0.07,-0.03,0.01,-0.05,249
0.14,0.94,-0.07,-0.04,0.01,-0.04,249
0.14,0.94,-0.07,-0.01,0.03,-0.01,249
0.14,0.94,-0.07,-0.01,-0.00,0.02,249
0.14,0.94,-0.07,-0.03,-0.04,-0.01,250
0.14,0.94,-0.07,-0.04,-0.05,-0.06,250
0.14,0.94,-0.07,-0.01,-0.09,-0.07,249
0.14,0.94,-0.07,0.02,-0.05,-0.06,249
0.14,0.94,-0.07,0.00,0.00,-0.01,249
0.14,0.94,-0.07,-0.01,0.00,0.01,250
0.14,0.94,-0.07,0.00,-0.02,-0.04,249
0.14,0.94,-0.07,0.00,-0.00,-0.05,249
0.14,0.94,-0.07,0.01,0.05,-0.02,249
0.14,0.94,-0.07,0.04,0.02,0.08,249
0.14,0.94,-0.07,0.05,-0.01,0.11,249
0.14,0.94,-0.07,0.03,0.02,0.07,249
0.14,0.94,-0.07,0.00,-0.02,-0.01,250
0.14,0.94,-0.07,-0.01,-0.07,-0.04,250
0.14,0.94,-0.07,0.00,-0.07,-0.00,249
0.14,0.94,-0.07,-0.01,-0.05,-0.02,249
0.14,0.94,-0.07,-0.04,-0.01,-0.05,249
0.14,0.94,-0.07,-0.07,0.02,-0.06,249
0.14,0.94,-0.07,-0.04,0.00,-0.08,249
0.14,0.94,-0.07,-0.04,0.00,-0.05,249
0.14,0.94,-0.07,-0.01,-0.01,-0.02,250
0.14,0.94,-0.07,0.04,-0.02,0.00,249
0.14,0.94,-0.07,0.06,-0.02,0.06,249
0.14,0.94,-0.07,0.06,-0.03,0.11,249
0.14,0.94,-0.07,0.07,0.01,0.12,249
0.14,0.94,-0.07,0.05,0.03,0.13,249
0.14,0.94,-0.07,0.01,0.03,0.16,249
0.14,0.94,-0.07,0.00,0.05,0.10,250
0.14,0.94,-0.07,-0.01,0.02,-0.01,249
0.14,0.94,-0.07,-0.04,0.00,-0.02,249
0.14,0.94,-0.07,-0.04,-0.03,-0.07,249
0.14,0.94,-0.07,-0.07,-0.03,-0.19,250
0.14,0.94,-0.07,-0.14,-0.04,-0.19,249
0.14,0.94,-0.07,-0.13,-0.07,-0.16,249
0.14,0.94,-0.07,-0.08,-0.06,-0.17,250
0.14,0.94,-0.07,-0.08,-0.08,-0.13,249
0.14,0.94,-0.07,-0.10,-0.05,-0.06,249
0.14,0.94,-0.07,-0.05,-0.03,-0.08,249
0.14,0.94,-0.07,0.01,-0.05,-0.07,249
0.14,0.94,-0.07,0.04,-0.02,0.04,249
0.14,0.94,-0.07,0.05,0.03,0.12,250
0.14,0.94,-0.07,0.02,0.04,0.12,249
0.14,0.94,-0.07,0.02,0.06,0.08,249
0.14,0.94,-0.07,0.04,0.07,0.05,249
0.14,0.94,-0.07,0.03,0.03,0.06,249
0.14,0.94,-0.07,0.02,0.02,0.08,249
0.14,0.94,-0.07,0.02,0.02,0.06,249
0.14,0.94,-0.07,0.03,0.02,0.01,249
0.14,0.94,-0.07,-0.01,-0.00,-0.05,249
0.14,0.94,-0.07,-0.03,-0.02,-0.07,249
0.14,0.94,-0.07,-0.03,-0.03,-0.07,249
0.14,0.94,-0.07,-0.04,-0.02,0.01,249
0.14,0.94,-0.07,-0.04,0.00,0.08,250
0.14,0.94,-0.07,0.00,0.00,0.03,249
0.14,0.94,-0.07,0.05,-0.01,-0.06,249
0.14,0.94,-0.07,0.06,-0.01,-0.01,249
0.14,0.94,-0.07,0.05,0.00,0.08,249
0.14,0.94,-0.07,-0.04,0.01,0.08,250
0.14,0.94,-0.07,-0.03,-0.01,-0.03,249
0.14,0.94,-0.07,0.04,0.01,-0.08,249
0.14,0.94,-0.07,0.03,-0.01,-0.08,249
0.14,0.94,-0.07,-0.05,-0.01,-0.04,249
0.14,0.94,-0.07,-0.07,0.01,0.04,249
0.14,0.94,-0.07,-0.02,0.00,0.02,249
0.14,0.94,-0.07,0.00,0.00,-0.01,249
0.14,0.94,-0.07,0.01,0.01,-0.05,250
0.14,0.94,-0.07,-0.02,0.02,-0.05,249
0.14,0.94,-0.07,-0.07,0.01,-0.01,249
0.14,0.94,-0.07,-0.04,0.02,0.02,250
0.14,0.94,-0.07,0.01,0.02,0.02,250
0.14,0.94,-0.07,0.02,-0.03,-0.05,250
0.14,0.94,-0.07,-0.00,-0.07,-0.07,249
0.14,0.94,-0.07,-0.02,-0.06,-0.01,249
0.14,0.94,-0.07,-0.01,-0.05,-0.00,249
0.14,0.94,-0.07,-0.02,-0.03,-0.01,249
0.14,0.94,-0.07,-0.01,0.02,0.03,250
0.14,0.94,-0.07,0.01,0.01,0.05,249
0.14,0.94,-0.07,0.05,0.01,0.08,250
0.14,0.94,-0.07,0.06,0.04,0.14,249
0.14,0.94,-0.07,0.05,0.03,0.14,249
0.14,0.94,-0.07,0.05,0.02,0.11,249
0.14,0.94,-0.07,0.03,0.01,0.04,250
0.14,0.94,-0.07,0.04,0.01,0.02,249
0.14,0.94,-0.07,0.03,-0.01,0.03,249
0.14,0.94,-0.07,-0.01,0.01,-0.02,250
0.14,0.94,-0.07,-0.01,0.02,-0.05,249
0.14,0.94,-0.07,-0.04,0.00,-0.09,249
0.14,0.94,-0.07,-0.08,0.00,-0.11,249
0.14,0.94,-0.07,-0.07,-0.02,-0.11,249
0.14,0.94,-0.07,-0.09,-0.01,-0.09,249
0.14,0.94,-0.07,-0.08,-0.00,-0.09,249
0.14,0.94,-0.07,-0.01,0.01,-0.10,249
0.14,0.94,-0.07,0.01,0.01,-0.04,249
0.14,0.94,-0.07,0.02,0.04,0.04,250
0.14,0.94,-0.07,0.05,0.02,0.02,249
0.14,0.94,-0.07,0.06,0.00,0.01,249
0.14,0.94,-0.07,0.05,0.05,0.05,250
0.14,0.94,-0.07,0.02,0.00,0.09,249
0.14,0.94,-0.07,0.05,-0.01,0.06,249
0.14,0.94,-0.07,0.04,0.04,0.03,250
0.14,0.94,-0.07,-0.01,0.03,-0.00,249
0.14,0.94,-0.07,0.02,-0.04,-0.06,249
0.14,0.94,-0.07,-0.01,-0.03,-0.05,250
0.14,0.94,-0.07,-0.05,0.03,-0.03,249
0.14,0.94,-0.07,-0.03,0.02,0.01,249
0.14,0.94,-0.07,0.00,-0.01,-0.05,249
0.14,0.94,-0.07,-0.01,-0.02,-0.11,250
0.14,0.94,-0.07,-0.03,-0.03,-0.06,249
0.14,0.94,-0.07,-0.01,-0.03,-0.02,249
0.14,0.94,-0.07,-0.01,-0.00,0.05,249
0.14,0.94,-0.07,0.00,0.03,0.09,250
0.14,0.94,-0.07,0.03,0.02,0.07,249
0.14,0.94,-0.07,0.02,-0.01,-0.01,249
0.14,0.94,-0.07,0.00,-0.03,0.01,249
0.14,0.94,-0.07,-0.01,-0.00,0.04,249
0.14,0.94,-0.07,0.01,0.04,0.06,249
0.14,0.94,-0.07,0.02,0.02,0.05,249
0.14,0.94,-0.07,0.00,0.01,-0.02,249
0.14,0.94,-0.07,0.04,-0.00,-0.03,249
0.14,0.94,-0.07,0.02,-0.02,-0.03,249
0.14,0.94,-0.07,0.01,0.02,0.02,250
0.14,0.94,-0.07,0.03,0.05,0.06,249
0.14,0.94,-0.07,0.02,0.03,0.00,250
0.14,0.94,-0.07,0.00,0.00,-0.03,249
0.14,0.94,-0.07,-0.01,-0.03,-0.03,250
0.14,0.94,-0.07,-0.02,-0.04,-0.00,249
0.14,0.94,-0.07,-0.02,0.00,0.01,249
0.14,0.94,-0.07,-0.01,0.02,-0.07,249
0.14,0.94,-0.07,-0.05,0.01,-0.12,250
0.14,0.94,-0.07,-0.04,0.02,-0.04,249
0.14,0.94,-0.07,-0.01,0.00,-0.01,250
0.14,0.94,-0.07,-0.01,-0.04,-0.08,250
0.14,0.94,-0.07,-0.02,-0.06,-0.07,250
0.14,0.94,-0.07,-0.04,-0.03,-0.04,249
0.14,0.94,-0.07,-0.02,0.02,0.00,249
0.14,0.94,-0.07,0.00,0.05,0.10,249
0.14,0.94,-0.07,0.01,0.05,0.14,249
0.14,0.94,-0.07,0.05,0.03,0.13,249
0.13,0.94,-0.07,0.08,0.01,0.11,249
0.14,0.94,-0.07,0.08,-0.01,0.08,249
0.14,0.94,-0.07,0.08,-0.01,0.11,249
0.14,0.94,-0.07,0.04,0.01,0.10,249
0.14,0.94,-0.07,-0.01,0.03,0.02,249
0.14,0.94,-0.07,0.01,0.05,-0.03,249
0.14,0.94,-0.07,-0.00,-0.00,-0.04,250
0.14,0.94,-0.07,-0.03,-0.03,-0.04,249
0.14,0.94,-0.07,0.00,-0.02,-0.06,249
0.14,0.94,-0.07,-0.04,-0.04,-0.08,249
0.14,0.94,-0.07,-0.04,-0.02,-0.07,249
0.14,0.94,-0.07,-0.00,0.04,-0.08,249
0.14,0.94,-0.07,-0.03,0.04,0.01,249
0.14,0.94,-0.07,0.01,0.02,0.07,249
0.14,0.94,-0.07,0.06,0.00,0.04,249
0.14,0.94,-0.07,0.03,0.02,0.04,249
0.14,0.94,-0.07,0.01,0.02,0.03,249
0.14,0.94,-0.07,0.02,-0.03,0.01,249
0.14,0.94,-0.07,0.05,0.01,0.01,249
0.14,0.94,-0.07,0.02,0.08,-0.04,249
0.14,0.94,-0.07,0.01,0.03,-0.08,249
0.14,0.94,-0.07,0.01,-0.03,-0.08,249
0.14,0.94,-0.07,-0.02,-0.05,-0.08,250
0.14,0.94,-0.07,-0.05,-0.04,-0.04,249
0.14,0.94,-0.07,-0.07,-0.00,-0.03,249
0.14,0.94,-0.07,-0.04,0.01,-0.06,250
0.13,0.94,-0.07,0.00,-0.05,-0.09,249
0.14,0.94,-0.07,0.01,-0.07,-0.11,249
0.14,0.94,-0.07,-0.01,-0.03,-0.00,249
0.14,0.94,-0.07,0.00,0.02,0.07,249
0.14,0.94,-0.07,0.03,0.07,0.05,249
0.14,0.94,-0.07,0.05,0.03,0.01,249
0.14,0.94,-0.07,0.02,-0.04,-0.04,249
0.14,0.94,-0.07,-0.01,-0.03,-0.00,249
0.14,0.94,-0.07,0.05,0.01,0.08,249
0.14,0.94,-0.07,0.07,0.00,0.10,249
0.14,0.94,-0.07,0.05,0.00,0.07,249
0.14,0.94,-0.07,0.02,0.04,0.05,249
0.14,0.94,-0.07,0.01,0.04,0.04,249
0.14,0.94,-0.07,0.04,0.02,0.03,249
0.14,0.94,-0.07,0.03,0.02,0.03,249
0.14,0.94,-0.07,0.02,0.04,0.00,249
0.14,0.94,-0.07,0.02,0.05,-0.03,249
0.14,0.94,-0.07,-0.01,0.02,-0.02,249
0.14,0.94,-0.07,-0.03,0.01,-0.03,250
0.14,0.94,-0.07,-0.06,-0.02,-0.05,249
0.14,0.94,-0.07,-0.07,-0.04,-0.07,249
0.14,0.94,-0.07,-0.03,-0.04,-0.11,249
0.14,0.94,-0.07,0.02,-0.05,-0.11,249
0.14,0.94,-0.07,0.01,0.00,-0.04,249
0.14,0.94,-0.07,-0.00,0.03,-0.00,249
0.14,0.94,-0.07,0.02,0.02,-0.02,249
0.14,0.94,-0.07,0.02,0.05,0.04,249
0.14,0.94,-0.07,0.00,0.05,0.11,249
0.14,0.94,-0.07,0.03,0.04,0.13,249
0.14,0.94,-0.07,0.04,-0.00,0.09,249
0.14,0.94,-0.07,0.03,-0.04,0.05,249
0.14,0.94,-0.07,0.01,-0.03,-0.01,249
0.14,0.94,-0.07,0.00,0.02,-0.03,249
0.14,0.94,-0.07,0.00,0.07,0.00,250
0.14,0.94,-0.07,-0.02,0.03,-0.03,249
0.14,0.94,-0.07,-0.04,-0.00,-0.03,250
0.14,0.94,-0.07,-0.06,-0.02,-0.06,249
0.14,0.94,-0.07,-0.06,-0.02,-0.05,249
0.14,0.94,-0.07,-0.04,-0.03,0.00,250
0.14,0.94,-0.07,-0.03,-0.02,-0.01,249
0.14,0.94,-0.07,0.02,0.00,-0.01,249
0.14,0.94,-0.07,0.05,-0.00,-0.01,249
0.14,0.94,-0.07,-0.02,-0.02,-0.02,249
0.14,0.94,-0.07,-0.04,-0.01,0.01,249
0.14,0.94,-0.07,-0.01,0.02,0.03,249
0.14,0.94,-0.07,0.00,0.02,0.03,249
0.14,0.94,-0.07,0.00,0.03,0.03,249
0.14,0.94,-0.07,0.03,0.06,0.03,249
0.14,0.94,-0.07,0.01,0.02,-0.00,250
0.14,0.94,-0.07,-0.03,-0.01,-0.04,249
0.14,0.94,-0.07,-0.06,-0.01,-0.05,249
0.14,0.94,-0.07,-0.09,-0.03,-0.10,250
0.14,0.94,-0.07,-0.05,-0.04,-0.15,249
0.14,0.94,-0.07,-0.03,-0.01,-0.14,249
0.14,0.94,-0.07,-0.06,-0.02,-0.03,249
0.14,0.94,-0.07,-0.06,0.00,0.08,250
0.14,0.94,-0.07,-0.04,0.00,0.04,249
0.14,0.94,-0.07,0.02,-0.03,-0.03,249
0.14,0.94,-0.07,0.07,-0.01,0.01,250
0.14,0.94,-0.07,0.05,0.03,0.10,249
0.14,0.94,-0.07,0.04,0.07,0.11,249
0.14,0.94,-0.07,0.03,0.06,0.08,249
0.14,0.94,-0.07,0.06,0.01,0.05,249
0.14,0.94,-0.07,0.07,-0.00,0.01,249
0.14,0.94,-0.07,0.03,0.03,0.03,249
0.14,0.94,-0.07,-0.03,0.08,0.07,249
0.14,0.94,-0.07,-0.05,0.05,0.06,249
0.14,0.94,-0.07,-0.05,-0.00,-0.00,249
0.14,0.94,-0.07,-0.03,-0.05,-0.10,249
0.14,0.94,-0.07,-0.03,-0.08,-0.19,249
0.14,0.94,-0.07,-0.06,-0.10,-0.13,249
0.14,0.94,-0.07,-0.11,-0.06,-0.02,250
0.14,0.94,-0.07,-0.09,0.02,0.02,249
0.14,0.94,-0.07,0.01,-0.02,0.00,249
0.14,0.94,-0.07,0.03,-0.03,-0.01,249
0.14,0.94,-0.07,0.02,0.02,0.01,249
0.14,0.94,-0.07,0.00,0.00,0.05,249
0.14,0.94,-0.07,-0.04,-0.02,0.05,250
0.14,0.94,-0.07,-0.06,0.01,0.01,249
0.14,0.94,-0.07,-0.02,0.05,-0.02,249
0.14,0.94,-0.07,0.03,0.05,0.03,249
0.14,0.94,-0.07,0.03,0.04,0.04,249
0.14,0.94,-0.07,0.02,0.00,0.02,250
0.14,0.94,-0.07,0.02,-0.03,0.01,249
0.13,0.94,-0.07,-0.01,-0.02,-0.01,249
0.14,0.94,-0.07,-0.04,0.03,-0.02,249
0.14,0.94,-0.07,-0.07,0.07,0.01,249
0.14,0.94,-0.07,-0.06,0.05,0.01,249
0.14,0.94,-0.07,-0.03,-0.00,-0.10,249
0.14,0.94,-0.07,-0.02,-0.01,-0.12,249
0.14,0.94,-0.07,-0.01,-0.02,-0.06,249
0.14,0.94,-0.07,-0.03,-0.02,-0.03,249
0.14,0.94,-0.07,-0.04,-0.02,-0.01,250
0.14,0.94,-0.07,-0.03,-0.05,-0.04,249
0.14,0.94,-0.07,0.05,-0.03,-0.05,249
0.14,0.94,-0.07,0.12,-0.02,0.05,249
0.14,0.94,-0.07,0.12,0.02,0.10,249
0.14,0.94,-0.07,0.08,0.05,0.10,249
0.14,0.94,-0.07,0.08,0.02,0.12,249
0.14,0.94,-0.07,0.08,-0.01,0.07,249
0.14,0.94,-0.07,0.05,-0.01,0.00,249
0.14,0.94,-0.07,0.02,-0.05,0.02,249
0.14,0.94,-0.07,-0.01,-0.06,0.03,250
0.14,0.94,-0.07,0.01,-0.04,-0.00,249
0.14,0.94,-0.07,-0.01,-0.05,-0.04,249
0.14,0.94,-0.07,-0.04,-0.07,-0.08,249
0.14,0.94,-0.07,-0.01,-0.02,-0.11,249
0.14,0.94,-0.07,0.00,0.01,-0.08,249
0.14,0.94,-0.07,-0.03,-0.01,-0.10,250
0.13,0.94,-0.07,-0.04,-0.01,-0.10,249
0.13,0.94,-0.07,-0.03,-0.02,-0.08,250
0.14,0.94,-0.07,-0.04,-0.03,-0.07,249
0.14,0.94,-0.07,-0.04,-0.03,-0.02,249
0.14,0.94,-0.07,-0.01,-0.02,-0.02,249
0.14,0.94,-0.07,0.05,-0.02,0.00,250
0.14,0.94,-0.07,0.06,-0.02,0.02,249
0.14,0.94,-0.07,0.02,0.00,0.04,249
0.14,0.94,-0.07,0.02,0.03,0.13,249
0.14,0.94,-0.07,0.05,0.03,0.16,249
0.14,0.94,-0.07,0.02,-0.01,0.08,249
0.14,0.94,-0.07,-0.03,-0.01,-0.02,249
0.14,0.94,-0.07,0.03,0.00,-0.05,250
0.14,0.94,-0.07,0.02,-0.03,-0.06,249
0.14,0.94,-0.07,-0.01,-0.04,-0.06,249
0.14,0.94,-0.07,0.00,0.01,-0.02,249
0.14,0.94,-0.07,0.01,0.01,-0.02,249
0.14,0.94,-0.07,0.00,0.01,-0.05,249
0.14,0.94,-0.07,-0.01,0.02,-0.03,250
0.14,0.94,-0.07,0.02,-0.02,-0.00,249
0.14,0.94,-0.07,0.04,-0.03,-0.01,250
0.14,0.94,-0.07,0.02,0.00,0.01,249
0.14,0.94,-0.07,0.01,-0.02,0.01,249
0.14,0.94,-0.07,0.05,-0.03,0.05,249
0.14,0.94,-0.07,0.06,0.02,0.10,249
0.14,0.94,-0.07,0.05,0.03,0.08,250
0.14,0.94,-0.07,-0.00,0.02,0.08,249
0.14,0.94,-0.07,-0.04,0.02,0.03,249
0.14,0.94,-0.07,-0.04,0.02,-0.02,249
0.14,0.94,-0.07,-0.07,-0.00,0.01,250
0.14,0.94,-0.07,-0.09,-0.02,-0.03,249
0.14,0.94,-0.07,-0.08,-0.02,-0.11,249
0.14,0.94,-0.07,-0.06,-0.05,-0.13,250
0.14,0.94,-0.07,-0.02,-0.06,-0.10,249
0.14,0.94,-0.07,0.01,-0.00,-0.01,249
0.14,0.94,-0.07,0.03,0.07,0.06,249
0.14,0.94,-0.07,-0.01,0.05,0.02,249
0.14,0.94,-0.07,-0.07,-0.00,0.02,249
0.14,0.94,-0.07,-0.01,-0.00,-0.02,249
0.14,0.94,-0.07,0.05,0.02,-0.04,249
0.14,0.94,-0.07,-0.01,-0.00,0.01,249
0.14,0.94,-0.07,-0.01,-0.01,-0.00,249
0.14,0.94,-0.07,-0.02,-0.01,-0.08,249
0.14,0.94,-0.07,-0.04,-0.04,-0.10,249
0.14,0.94,-0.07,-0.00,0.00,-0.00,249
0.14,0.94,-0.07,0.05,0.03,0.05,250
0.14,0.94,-0.07,0.03,-0.04,0.05,249
0.14,0.94,-0.07,0.02,-0.05,-0.00,249
0.14,0.94,-0.07,0.07,0.02,-0.01,249
0.14,0.94,-0.07,0.05,0.02,0.04,249
0.14,0.94,-0.07,0.02,0.02,0.05,249
0.14,0.94,-0.07,0.00,0.05,0.04,249
0.14,0.94,-0.07,-0.01,0.03,-0.00,249
0.14,0.94,-0.07,-0.03,0.01,-0.07,249
0.14,0.94,-0.07,-0.04,-0.01,-0.04,249
0.14,0.94,-0.07,-0.02,-0.02,0.02,249
0.14,0.94,-0.07,-0.04,-0.02,0.01,249
0.14,0.94,-0.07,-0.06,-0.03,-0.05,250
0.14,0.94,-0.07,-0.02,0.00,-0.08,249
0.14,0.94,-0.07,-0.02,0.00,-0.05,249
0.14,0.94,-0.07,-0.04,-0.04,0.02,250
0.14,0.94,-0.07,0.01,0.02,0.10,249
0.14,0.94,-0.07,0.04,0.06,0.12,249
0.14,0.94,-0.07,0.03,0.03,0.10,250
0.14,0.94,-0.07,0.02,0.01,0.02,249
0.14,0.94,-0.07,-0.00,0.02,-0.05,249
0.14,0.94,-0.07,-0.03,0.00,0.01,249
0.14,0.94,-0.07,-0.04,0.00,0.02,249
0.14,0.94,-0.07,-0.04,0.02,-0.04,249
0.14,0.94,-0.07,-0.01,0.01,-0.10,250
0.14,0.94,-0.07,0.03,-0.01,-0.14,249
0.14,0.94,-0.07,-0.03,-0.06,-0.11,249
0.14,0.94,-0.07,-0.08,-0.08,-0.07,250
0.14,0.94,-0.07,-0.07,-0.02,-0.05,249
0.14,0.94,-0.07,0.00,0.02,-0.07,249
0.14,0.94,-0.07,0.02,0.01,-0.05,249
0.14,0.94,-0.07,-0.02,0.02,0.02,249
0.14,0.94,-0.07,0.04,0.02,0.03,249
0.14,0.94,-0.07,0.07,0.02,0.04,250
0.14,0.94,-0.07,0.04,0.01,0.05,249
0.14,0.94,-0.07,0.05,0.02,0.01,249
0.14,0.94,-0.07,0.06,0.05,0.02,250
0.14,0.94,-0.07,0.01,0.05,0.04,249
0.14,0.94,-0.07,0.01,0.04,0.05,249
0.14,0.94,-0.07,0.04,0.02,0.03,249
0.14,0.94,-0.07,0.04,-0.03,-0.02,249
0.14,0.94,-0.07,0.00,-0.04,0.00,249
0.14,0.94,-0.07,0.00,0.00,0.03,249
0.14,0.94,-0.07,0.01,0.02,0.02,249
0.14,0.94,-0.07,-0.04,0.02,-0.01,249
0.14,0.94,-0.07,0.00,0.03,-0.05,249
0.14,0.94,-0.07,0.04,0.01,-0.02,250
0.14,0.94,-0.07,-0.00,0.00,0.03,249
0.14,0.94,-0.07,-0.03,-0.04,-0.03,250
0.14,0.94,-0.07,-0.05,-0.05,-0.09,249
0.14,0.94,-0.07,-0.04,-0.02,-0.10,249
0.14,0.94,-0.07,-0.01,-0.02,-0.05,249
0.14,0.94,-0.07,0.01,0.02,0.01,249
0.14,0.94,-0.07,0.00,0.02,-0.03,250
0.14,0.94,-0.07,0.01,-0.04,-0.08,250
0.14,0.94,-0.07,0.02,-0.05,-0.05,249
0.13,0.94,-0.07,0.00,-0.00,-0.01,249
0.14,0.94,-0.07,-0.02,-0.01,0.00,249
0.14,0.94,-0.07,-0.02,-0.01,0.03,249
0.14,0.94,-0.07,0.00,0.02,-0.02,249
0.14,0.94,-0.07,0.02,0.02,-0.05,249
0.14,0.94,-0.07,-0.00,0.03,0.02,250
0.14,0.94,-0.07,0.01,0.06,0.05,249
0.14,0.94,-0.07,0.00,0.01,0.00,249
0.14,0.94,-0.07,-0.06,-0.03,-0.02,249
0.14,0.94,-0.07,-0.06,-0.02,-0.08,250
0.14,0.94,-0.07,-0.04,-0.04,-0.13,249
0.14,0.94,-0.07,-0.02,-0.05,-0.07,249
0.14,0.94,-0.07,0.01,0.02,0.04,249
0.14,0.94,-0.07,-0.03,0.02,0.05,249
0.14,0.94,-0.07,0.01,0.02,0.04,249
0.14,0.94,-0.07,0.07,0.02,0.00,249
0.14,0.94,-0.07,0.06,0.00,-0.03,249
0.14,0.94,-0.07,0.06,0.03,0.04,249
0.14,0.94,-0.07,0.05,0.04,0.10,250
0.14,0.94,-0.07,0.07,0.02,0.08,249
0.14,0.94,-0.07,0.04,-0.02,-0.00,249
0.14,0.94,-0.07,-0.01,0.00,-0.04,249
0.14,0.94,-0.07,-0.03,0.03,-0.01,249
0.14,0.94,-0.07,-0.06,-0.01,0.04,249
0.14,0.94,-0.07,-0.09,0.00,0.00,249
0.14,0.94,-0.07,-0.07,0.01,-0.05,249
0.14,0.94,-0.07,-0.06,-0.02,-0.05,250
0.14,0.94,-0.07,-0.07,-0.04,-0.08,249
0.13,0.94,-0.07,-0.04,-0.01,-0.06,249
0.14,0.94,-0.07,-0.03,-0.00,-0.01,250
0.14,0.94,-0.07,-0.04,-0.06,0.01,249
0.14,0.94,-0.07,-0.01,-0.05,0.03,249
0.14,0.94,-0.07,0.07,-0.02,0.04,249
0.14,0.94,-0.07,0.06,-0.00,0.07,250
0.14,0.94,-0.07,0.05,-0.01,0.10,249
0.14,0.94,-0.07,0.06,0.01,0.07,249
0.14,0.94,-0.07,0.07,0.01,0.07,249
0.14,0.94,-0.07,0.05,0.02,0.15,249
0.14,0.94,-0.07,0.05,0.02,0.15,249
0.14,0.94,-0.07,0.04,-0.05,0.01,249
0.14,0.94,-0.07,-0.01,-0.06,-0.06,249
0.14,0.94,-0.07,-0.03,-0.02,-0.06,249
0.14,0.94,-0.07,-0.03,-0.00,-0.05,249
0.14,0.94,-0.07,-0.03,0.02,-0.01,249
0.14,0.94,-0.07,-0.04,0.02,-0.04,249
0.14,0.94,-0.07,-0.01,-0.05,-0.11,249
0.14,0.94,-0.07,0.01,-0.05,-0.07,249
0.14,0.94,-0.07,-0.00,0.03,-0.04,249
0.14,0.94,-0.07,-0.01,0.07,0.02,249
0.14,0.94,-0.07,-0.04,-0.01,0.07,249
0.14,0.94,-0.07,0.01,-0.04,0.04,250
0.14,0.94,-0.07,0.04,-0.02,-0.02,249
0.14,0.94,-0.07,0.02,-0.00,-0.03,249
0.14,0.94,-0.07,0.04,0.03,0.03,249
0.14,0.94,-0.07,0.04,0.03,0.10,249
0.14,0.94,-0.07,0.07,0.03,0.11,249
0.14,0.94,-0.07,0.05,0.02,0.01,250
0.14,0.94,-0.07,0.03,0.02,-0.05,249
0.14,0.94,-0.07,0.04,0.01,-0.05,249
0.14,0.94,-0.07,0.05,0.00,0.01,249
0.14,0.94,-0.07,0.01,-0.02,0.05,250
0.14,0.94,-0.07,-0.05,-0.03,-0.05,249
0.14,0.94,-0.07,-0.06,0.02,-0.12,249
0.14,0.94,-0.07,-0.05,0.04,-0.07,249
0.14,0.94,-0.07,-0.05,0.01,-0.00,249
0.14,0.94,-0.07,-0.04,0.00,0.03,249
0.14,0.94,-0.07,-0.01,0.02,0.01,250
0.14,0.94,-0.07,-0.00,0.02,-0.08,249
0.13,0.94,-0.07,0.00,-0.01,-0.14,249
0.14,0.94,-0.07,0.03,-0.00,-0.08,249
0.14,0.94,-0.07,0.01,0.03,0.01,249
0.14,0.94,-0.07,-0.01,0.05,0.05,250
0.14,0.94,-0.07,0.05,0.06,0.09,249
0.14,0.94,-0.07,0.07,0.02,0.07,249
0.14,0.94,-0.07,0.05,-0.03,0.02,249
0.14,0.94,-0.07,0.02,-0.02,0.06,249
0.14,0.94,-0.07,0.02,0.01,0.09,249
0.14,0.94,-0.07,0.02,0.02,0.05,249
0.14,0.94,-0.07,0.00,-0.02,0.01,249
0.14,0.94,-0.07,-0.01,-0.02,0.01,249
0.14,0.94,-0.07,0.00,-0.02,0.02,250
0.14,0.94,-0.07,-0.03,-0.04,-0.00,249
0.14,0.94,-0.07,-0.09,-0.03,-0.06,250
0.14,0.94,-0.07,-0.02,-0.01,-0.12,250
0.14,0.94,-0.07,-0.01,-0.01,-0.12,249
0.14,0.94,-0.07,-0.05,0.01,-0.07,249
0.14,0.94,-0.07,0.02,0.03,-0.02,249
0.13,0.94,-0.07,0.04,-0.01,0.02,249
0.14,0.94,-0.07,0.00,-0.01,0.05,249
0.14,0.94,-0.07,0.05,0.03,0.06,250
0.14,0.94,-0.07,0.05,0.02,0.05,249
0.14,0.94,-0.07,0.02,0.01,0.03,249
0.14,0.94,-0.07,0.02,-0.02,0.02,249
0.14,0.94,-0.07,0.02,-0.05,0.03,249
0.14,0.94,-0.07,0.01,-0.03,-0.01,249
0.14,0.94,-0.07,0.02,0.02,0.02,249
0.14,0.94,-0.07,0.05,0.04,0.05,249
0.14,0.94,-0.07,0.01,-0.00,-0.03,249
0.14,0.94,-0.07,0.00,-0.06,-0.10,249
0.14,0.94,-0.07,-0.01,-0.08,-0.11,249
0.14,0.94,-0.07,-0.00,-0.02,-0.05,249
0.14,0.94,-0.07,-0.00,-0.02,-0.01,249
0.14,0.94,-0.07,0.01,-0.03,0.01,249
0.14,0.94,-0.07,0.04,0.00,-0.04,250
0.13,0.94,-0.07,0.02,0.01,-0.09,249
0.13,0.94,-0.07,-0.04,0.01,0.00,249
0.14,0.94,-0.07,0.02,0.02,0.15,249
0.14,0.94,-0.07,0.03,0.02,0.15,249
0.14,0.94,-0.07,0.02,-0.00,0.03,250
0.14,0.94,-0.07,0.05,-0.01,-0.01,249
0.14,0.94,-0.07,0.01,0.04,-0.01,249
0.14,0.94,-0.07,0.02,0.05,0.05,250
0.14,0.94,-0.07,0.02,0.00,0.05,249
0.14,0.94,-0.07,0.02,-0.03,0.00,250
0.14,0.94,-0.07,-0.01,-0.03,-0.03,249
0.14,0.94,-0.07,-0.03,0.00,-0.06,249
0.13,0.94,-0.07,-0.04,-0.01,-0.06,249
0.14,0.94,-0.07,-0.04,-0.04,-0.01,249
0.14,0.94,-0.07,-0.01,-0.03,0.05,249
0.14,0.94,-0.07,-0.02,-0.06,-0.04,250
0.14,0.94,-0.07,-0.02,-0.07,-0.13,249
0.14,0.94,-0.07,-0.03,-0.06,-0.08,249
0.14,0.94,-0.07,0.01,0.00,0.01,250
0.14,0.94,-0.07,0.04,0.05,0.02,249
0.14,0.94,-0.07,0.03,0.04,0.01,249
0.14,0.94,-0.07,0.02,0.04,0.00,249
0.14,0.94,-0.07,0.03,0.05,0.02,249
0.14,0.94,-0.07,0.02,0.02,0.05,249
0.14,0.94,-0.07,0.01,0.02,0.06,249
0.14,0.94,-0.07,0.03,-0.02,0.03,249
0.14,0.94,-0.07,0.04,-0.04,0.02,249
0.14,0.94,-0.07,0.02,-0.01,0.07,249
0.14,0.94,-0.07,0.00,0.00,0.05,249
0.14,0.94,-0.07,0.00,-0.03,0.03,249
0.14,0.94,-0.07,0.01,-0.05,-0.04,249
0.14,0.94,-0.07,-0.01,-0.04,-0.10,249
0.14,0.94,-0.07,-0.00,-0.05,-0.08,249
0.14,0.94,-0.07,0.02,0.02,-0.07,249
0.14,0.94,-0.07,-0.03,0.04,-0.05,249
0.14,0.94,-0.07,-0.02,-0.01,-0.03,250
0.14,0.94,-0.07,0.01,-0.01,-0.01,249
0.14,0.94,-0.07,-0.03,-0.02,-0.03,249
0.14,0.94,-0.07,-0.02,0.02,-0.01,249
0.14,0.94,-0.07,-0.01,0.00,0.02,249
0.14,0.94,-0.07,0.01,-0.02,0.01,249
0.14,0.94,-0.07,0.00,0.00,0.02,249
0.14,0.94,-0.07,0.02,-0.05,0.05,249
0.14,0.94,-0.07,0.08,-0.04,0.10,249
0.14,0.94,-0.07,0.05,-0.00,0.10,249
0.14,0.94,-0.07,0.04,0.05,0.08,249
0.14,0.94,-0.07,0.04,0.01,0.04,249
0.14,0.94,-0.07,0.01,0.01,0.01,249
0.14,0.94,-0.07,-0.01,0.01,-0.00,249
0.14,0.94,-0.07,-0.01,-0.04,-0.02,249
0.14,0.94,-0.07,-0.00,-0.03,-0.05,250
0.14,0.94,-0.07,-0.01,-0.01,-0.11,249
0.14,0.94,-0.07,-0.01,-0.01,-0.08,249
0.14,0.94,-0.07,-0.04,-0.03,-0.05,249
0.14,0.94,-0.07,-0.02,-0.01,-0.02,249
0.14,0.94,-0.07,-0.01,-0.02,0.02,250
0.14,0.94,-0.07,0.01,-0.01,0.02,250
0.14,0.94,-0.07,0.02,0.03,0.05,249
0.14,0.94,-0.07,0.07,0.05,0.09,250
0.14,0.94,-0.07,0.08,0.01,0.12,249
0.14,0.94,-0.07,0.06,0.01,0.16,249
0.14,0.94,-0.07,0.05,0.05,0.11,249
0.14,0.94,-0.07,0.05,0.03,0.03,249
0.14,0.94,-0.07,0.03,0.05,0.02,249
0.14,0.94,-0.07,-0.02,0.04,0.02,249
0.14,0.94,-0.07,-0.04,0.03,0.01,249
0.14,0.94,-0.07,-0.03,-0.00,0.00,249
0.14,0.94,-0.07,0.03,0.01,-0.05,249
0.14,0.94,-0.07,0.02,0.02,-0.17,249
0.14,0.94,-0.07,-0.01,-0.01,-0.12,249
0.14,0.94,-0.07,0.00,-0.00,-0.02,249
0.14,0.94,-0.07,-0.01,-0.02,-0.03,249
0.14,0.94,-0.07,-0.01,-0.02,-0.02,250
0.14,0.94,-0.07,0.00,0.01,-0.02,249
0.14,0.94,-0.07,0.01,-0.04,-0.05,249
0.14,0.94,-0.07,-0.01,-0.06,-0.01,249
0.14,0.94,-0.07,-0.01,0.01,0.09,249
0.14,0.94,-0.07,0.00,0.03,0.07,249
0.14,0.94,-0.07,0.04,-0.02,0.00,249
0.14,0.94,-0.07,0.07,-0.05,-0.02,249
0.14,0.94,-0.07,0.07,0.01,0.01,249
0.14,0.94,-0.07,0.04,0.02,-0.01,249
0.14,0.94,-0.07,-0.03,-0.01,-0.02,250
0.14,0.94,-0.07,-0.04,-0.05,-0.01,250
0.14,0.94,-0.07,0.02,-0.03,-0.01,249
0.14,0.94,-0.07,0.03,0.02,0.04,249
0.13,0.94,-0.07,0.00,0.04,0.09,249
0.14,0.94,-0.07,0.02,0.00,0.03,250
0.14,0.94,-0.07,0.02,-0.01,-0.06,249
0.14,0.94,-0.07,-0.00,-0.02,-0.11,249
0.14,0.94,-0.07,-0.02,0.00,-0.08,250
0.14,0.94,-0.07,-0.05,0.02,-0.02,249
0.14,0.94,-0.07,-0.01,0.00,-0.01,249
0.14,0.94,-0.07,0.05,-0.02,-0.02,250
0.14,0.94,-0.07,0.05,0.02,0.00,249
0.14,0.94,-0.07,0.02,0.03,0.01,249
0.14,0.94,-0.07,-0.02,0.02,0.07,249
0.14,0.94,-0.07,-0.02,0.02,0.10,249
0.14,0.94,-0.07,0.00,-0.02,0.04,249
0.14,0.94,-0.07,-0.01,-0.03,0.02,249
0.14,0.94,-0.07,0.00,-0.01,0.04,250
0.14,0.94,-0.07,-0.00,0.03,0.08,249
0.14,0.94,-0.07,-0.02,0.01,0.12,249
0.14,0.94,-0.07,-0.01,0.03,0.05,249
0.14,0.94,-0.07,0.00,0.05,-0.00,249
0.14,0.94,-0.07,-0.02,0.00,0.03,249
0.14,0.94,-0.07,-0.04,-0.01,0.02,249
0.14,0.94,-0.07,-0.05,-0.04,-0.05,249
0.14,0.94,-0.07,-0.04,-0.05,-0.06,249
0.14,0.94,-0.07,-0.02,0.02,-0.06,249
0.14,0.94,-0.07,-0.04,0.05,-0.03,250
0.14,0.94,-0.07,0.00,0.05,0.03,249
0.14,0.94,-0.07,0.04,0.03,0.06,250
0.14,0.94,-0.07,-0.00,-0.01,0.01,249
0.14,0.94,-0.07,0.01,-0.03,-0.02,250
0.14,0.94,-0.07,0.03,-0.04,-0.00,249
0.14,0.94,-0.07,0.04,-0.01,0.02,249
0.14,0.94,-0.07,0.05,0.02,0.08,249
0.14,0.94,-0.07,0.03,0.01,0.10,250
0.14,0.94,-0.07,0.06,-0.01,0.05,249
0.14,0.94,-0.07,0.06,-0.01,-0.03,249
0.14,0.94,-0.07,-0.01,-0.03,-0.03,249
0.14,0.94,-0.07,-0.00,-0.03,0.02,249
0.14,0.94,-0.07,-0.03,-0.04,0.02,250
0.14,0.94,-0.07,-0.08,-0.05,-0.06,249
0.14,0.94,-0.07,-0.05,-0.05,-0.13,250
0.14,0.94,-0.07,0.02,0.01,-0.06,249
0.14,0.94,-0.07,0.02,0.02,0.05,249
0.14,0.94,-0.07,0.01,0.01,0.08,249
0.14,0.94,-0.07,-0.02,0.02,0.06,249
0.14,0.94,-0.07,-0.01,-0.05,0.02,249
0.14,0.94,-0.07,0.04,0.00,-0.00,249
0.14,0.94,-0.07,0.05,0.05,0.05,249
0.14,0.94,-0.07,0.03,0.01,0.10,250
0.14,0.94,-0.07,-0.01,-0.02,0.05,249
0.14,0.94,-0.07,0.00,0.04,0.03,250
0.14,0.94,-0.07,-0.01,0.03,-0.00,249
0.14,0.94,-0.07,-0.03,-0.05,-0.08,249
0.14,0.94,-0.07,-0.03,-0.02,-0.08,249
0.14,0.94,-0.07,-0.07,-0.03,-0.05,249
0.14,0.94,-0.07,-0.11,-0.06,-0.07,250
0.14,0.94,-0.07,-0.08,-0.03,-0.06,250
0.14,0.94,-0.07,-0.04,-0.01,-0.07,250
0.14,0.94,-0.07,-0.01,0.00,-0.08,249
0.14,0.94,-0.07,-0.01,0.01,-0.03,249
0.14,0.94,-0.07,-0.03,0.02,-0.02,249
0.14,0.94,-0.07,-0.01,-0.01,0.00,249
0.14,0.94,-0.07,-0.01,-0.02,0.02,250
0.14,0.94,-0.07,0.00,-0.02,0.05,249
0.14,0.94,-0.07,0.02,0.02,0.05,249
0.14,0.94,-0.07,0.00,0.04,-0.02,250
0.14,0.94,-0.07,0.03,0.04,0.01,249
0.14,0.94,-0.07,0.04,0.04,0.06,250
0.14,0.94,-0.07,0.01,0.02,0.07,249
0.14,0.94,-0.07,0.01,0.02,0.03,249
0.14,0.94,-0.07,0.01,-0.01,0.00,249
0.14,0.94,-0.07,0.02,-0.04,-0.03,250
0.14,0.94,-0.07,0.04,-0.06,-0.06,249
0.14,0.94,-0.07,0.02,-0.04,-0.03,249
0.14,0.94,-0.07,-0.03,0.01,0.00,249
0.14,0.94,-0.07,-0.04,-0.01,-0.04,249
0.14,0.94,-0.07,-0.00,-0.02,-0.09,249
0.14,0.94,-0.07,0.00,0.01,-0.05,249
0.14,0.94,-0.07,-0.03,0.01,-0.02,249
0.14,0.94,-0.07,-0.03,0.00,0.03,249
0.14,0.94,-0.07,-0.00,0.01,0.01,250
0.14,0.94,-0.07,0.00,0.02,-0.06,250
0.14,0.94,-0.07,-0.01,0.02,-0.04,249
0.14,0.94,-0.07,0.00,0.01,-0.01,249
0.14,0.94,-0.07,0.02,0.00,0.01,249
0.14,0.94,-0.07,0.02,0.00,0.03,250
0.14,0.94,-0.07,0.00,0.01,0.01,249
0.14,0.94,-0.07,0.02,-0.02,-0.03,249
0.14,0.94,-0.07,0.02,0.02,-0.03,249
0.14,0.94,-0.07,-0.01,0.06,0.04,249
0.14,0.94,-0.07,-0.04,0.04,0.10,249
0.14,0.94,-0.07,-0.03,0.07,0.02,249
0.14,0.94,-0.07,-0.03,0.03,-0.09,249
0.14,0.94,-0.07,-0.04,-0.02,-0.11,250
0.14,0.94,-0.07,-0.03,-0.02,-0.07,249
0.14,0.94,-0.07,-0.04,-0.00,-0.02,249
0.14,0.94,-0.07,-0.03,0.01,0.03,249
0.14,0.94,-0.07,0.00,-0.01,0.02,249
0.14,0.94,-0.07,0.02,0.01,0.00,249
0.14,0.94,-0.07,0.01,0.06,0.05,249
0.14,0.94,-0.07,0.00,0.05,0.12,249
0.14,0.94,-0.07,0.07,0.03,0.09,249
0.14,0.94,-0.07,0.07,0.01,0.05,249
0.14,0.94,-0.07,0.03,0.00,0.06,249
0.14,0.94,-0.07,0.05,0.02,0.05,249
0.14,0.94,-0.07,0.06,0.02,0.04,249
0.14,0.94,-0.07,0.02,-0.00,0.04,249
0.14,0.94,-0.07,-0.03,0.00,-0.00,249
0.14,0.94,-0.07,-0.05,0.01,-0.06,249
0.14,0.94,-0.07,-0.02,0.02,-0.11,250
0.14,0.94,-0.07,-0.02,0.04,-0.08,249
0.14,0.94,-0.07,-0.03,0.00,-0.03,250
0.14,0.94,-0.07,-0.00,-0.00,-0.06,249
0.14,0.94,-0.07,-0.02,0.00,-0.06,249
0.14,0.94,-0.07,-0.02,-0.03,-0.03,249
0.14,0.94,-0.07,-0.01,0.01,-0.04,249
0.14,0.94,-0.07,-0.06,0.02,-0.05,249
0.14,0.94,-0.07,-0.03,-0.03,-0.05,249
0.14,0.94,-0.07,0.01,-0.05,-0.06,249
0.13,0.94,-0.07,0.02,-0.01,-0.02,249
0.13,0.94,-0.07,0.05,0.04,0.06,249
0.14,0.94,-0.07,0.02,0.05,0.11,249
0.14,0.94,-0.07,0.03,0.00,0.06,249
0.14,0.94,-0.07,0.03,0.02,0.01,249
0.14,0.94,-0.07,0.02,0.05,0.01,249
0.14,0.94,-0.07,0.03,0.02,0.00,249
0.14,0.94,-0.07,0.00,0.02,0.03,249
0.14,0.94,-0.07,-0.01,0.02,0.02,250
0.14,0.94,-0.07,-0.02,-0.02,-0.03,249
0.14,0.94,-0.07,-0.01,-0.03,-0.06,249
0.14,0.94,-0.07,-0.01,-0.03,-0.05,249
0.14,0.94,-0.07,0.02,-0.01,0.02,249
0.14,0.94,-0.07,0.03,-0.00,0.04,250
0.14,0.94,-0.07,-0.01,0.00,-0.00,250
0.14,0.94,-0.07,-0.01,0.03,-0.05,249
0.14,0.94,-0.07,0.03,0.04,-0.01,249
0.14,0.94,-0.07,0.02,0.08,0.09,249
0.14,0.94,-0.07,-0.01,0.09,0.11,250
0.14,0.94,-0.07,0.05,0.02,0.07,249
0.14,0.94,-0.07,0.05,0.00,0.06,249
0.14,0.94,-0.07,0.04,-0.01,0.06,249
0.14,0.94,-0.07,0.02,0.02,0.05,250
0.14,0.94,-0.07,0.02,0.02,0.06,249
0.14,0.94,-0.07,0.04,0.00,0.06,249
0.14,0.94,-0.07,0.02,0.00,0.04,249
0.14,0.94,-0.07,0.02,0.00,-0.02,249
0.14,0.94,-0.07,-0.02,0.02,-0.07,249
0.14,0.94,-0.07,-0.04,0.02,-0.03,249
0.14,0.94,-0.07,-0.03,0.02,-0.02,249
0.14,0.94,-0.07,-0.06,0.02,-0.07,249
0.14,0.94,-0.07,-0.03,-0.03,-0.11,249
0.14,0.94,-0.07,-0.00,-0.03,-0.11,249
0.14,0.94,-0.07,-0.01,-0.01,-0.04,249
0.14,0.94,-0.07,-0.02,0.02,-0.03,249
0.14,0.94,-0.07,-0.01,-0.01,0.02,249
0.14,0.94,-0.07,0.03,-0.05,0.02,249
0.14,0.94,-0.07,0.03,-0.03,0.01,249
0.14,0.94,-0.07,0.03,-0.01,0.10,249
0.14,0.94,-0.07,0.06,0.00,0.14,249
0.14,0.94,-0.07,0.04,0.03,0.10,250
0.14,0.94,-0.07,0.02,0.06,0.05,249
0.14,0.94,-0.07,0.00,0.04,0.06,250
0.14,0.94,-0.07,0.00,-0.01,0.02,249
0.14,0.94,-0.07,-0.01,-0.00,-0.05,250
0.14,0.94,-0.07,-0.04,0.01,-0.09,249
0.14,0.94,-0.07,-0.04,0.00,-0.08,249
0.14,0.94,-0.07,-0.07,-0.03,-0.10,249
0.14,0.94,-0.07,-0.04,-0.05,-0.08,250
0.14,0.94,-0.07,-0.00,-0.02,-0.02,249
0.14,0.94,-0.07,-0.00,0.03,-0.00,250
0.14,0.94,-0.07,0.01,0.09,-0.00,249
0.14,0.94,-0.07,-0.01,0.06,0.00,249
0.14,0.94,-0.07,-0.02,0.03,0.03,249
0.14,0.94,-0.07,-0.00,0.02,0.08,249
0.14,0.94,-0.07,0.04,0.02,0.07,250
0.14,0.94,-0.07,0.06,0.00,0.05,249
0.14,0.94,-0.07,0.07,0.05,0.07,250
0.14,0.94,-0.07,0.07,0.09,0.07,250
0.14,0.94,-0.07,0.02,0.03,0.10,249
0.14,0.94,-0.07,0.02,0.02,0.08,250
0.14,0.94,-0.07,0.03,0.06,0.02,249
0.14,0.94,-0.07,0.02,0.03,-0.06,250
0.14,0.94,-0.07,-0.01,-0.01,-0.06,249
0.14,0.94,-0.07,-0.04,0.01,-0.02,250
0.14,0.94,-0.07,-0.02,-0.01,-0.05,249
0.14,0.94,-0.07,-0.02,-0.01,-0.06,250
0.14,0.94,-0.07,-0.03,0.01,-0.07,250
0.14,0.94,-0.07,-0.02,0.02,-0.03,249
0.14,0.94,-0.07,-0.04,0.05,-0.03,249
0.14,0.94,-0.07,-0.01,0.04,-0.02,250
0.14,0.94,-0.07,0.01,0.03,0.03,249
0.14,0.94,-0.07,-0.02,-0.03,-0.03,249
0.14,0.94,-0.07,0.00,-0.06,-0.05,249
0.14,0.94,-0.07,0.06,-0.03,0.07,249
0.14,0.94,-0.07,0.08,0.01,0.10,249
0.14,0.94,-0.07,0.10,0.02,0.07,249
0.14,0.94,-0.07,0.07,0.03,0.06,249
0.14,0.94,-0.07,0.06,0.06,0.05,249
0.14,0.94,-0.07,0.05,0.05,0.03,250
0.14,0.94,-0.07,0.00,0.04,0.04,249
0.14,0.94,-0.07,-0.02,0.03,0.09,249
0.14,0.94,-0.07,-0.08,-0.01,0.03,249
0.14,0.94,-0.07,-0.10,-0.05,-0.10,249
0.14,0.94,-0.07,-0.04,-0.07,-0.11,249
0.14,0.94,-0.07,-0.03,-0.06,-0.08,250
0.14,0.94,-0.07,-0.06,-0.08,-0.08,250
0.14,0.94,-0.07,-0.08,-0.05,-0.05,250
0.14,0.94,-0.07,-0.01,0.00,-0.04,249
0.14,0.94,-0.07,0.05,0.01,-0.04,249
0.14,0.94,-0.07,0.02,0.05,-0.01,249
0.14,0.94,-0.07,-0.02,0.03,0.09,249
0.14,0.94,-0.07,-0.02,-0.01,0.12,250
0.14,0.94,-0.07,0.00,0.02,0.03,249
0.14,0.94,-0.07,0.03,-0.01,0.03,249
0.14,0.94,-0.07,0.02,-0.03,0.04,250
0.14,0.94,-0.07,0.00,0.02,0.03,249
0.14,0.94,-0.07,0.00,0.04,0.05,249
0.14,0.94,-0.07,-0.01,0.01,0.05,250
0.14,0.94,-0.07,-0.04,-0.03,-0.02,249
0.14,0.94,-0.07,-0.03,-0.02,-0.11,249
0.14,0.94,-0.07,-0.04,-0.03,-0.09,249
0.14,0.94,-0.07,-0.09,-0.06,-0.05,249
0.14,0.94,-0.07,-0.04,-0.03,-0.06,249
0.14,0.94,-0.07,-0.01,-0.02,-0.06,249
0.14,0.94,-0.07,-0.06,-0.02,-0.06,249
0.14,0.94,-0.07,-0.05,-0.02,-0.03,249
0.14,0.94,-0.07,0.00,-0.02,0.00,249
0.14,0.94,-0.07,0.02,-0.03,0.02,249
0.14,0.94,-0.07,0.02,-0.01,0.05,249
0.14,0.94,-0.07,0.03,0.04,0.08,249
0.14,0.94,-0.07,0.05,0.02,0.09,249
0.14,0.94,-0.07,0.04,0.01,0.08,249
0.14,0.94,-0.07,0.03,0.03,0.06,249
0.14,0.94,-0.07,0.03,0.04,0.04,249
0.14,0.94,-0.07,0.03,0.03,0.03,249
0.14,0.94,-0.07,0.00,0.03,0.03,249
0.14,0.94,-0.07,-0.00,-0.02,0.02,250
0.14,0.94,-0.07,-0.05,-0.02,-0.02,249
0.14,0.94,-0.07,-0.10,0.01,-0.05,249
0.14,0.94,-0.07,-0.10,0.02,-0.08,249
0.14,0.94,-0.07,-0.09,0.01,-0.07,250
0.14,0.94,-0.07,-0.04,-0.01,-0.03,249
0.14,0.94,-0.07,-0.00,-0.05,-0.04,249
0.14,0.94,-0.07,-0.00,-0.05,-0.06,250
0.14,0.94,-0.07,0.02,0.00,-0.02,249
0.14,0.94,-0.07,0.06,0.03,0.05,249
0.14,0.94,-0.07,0.06,0.07,0.08,249
0.14,0.94,-0.07,0.04,0.07,0.05,250
0.14,0.94,-0.07,0.06,0.05,0.01,249
0.14,0.94,-0.07,0.04,0.04,-0.04,249
0.14,0.94,-0.07,-0.02,-0.00,-0.04,249
0.14,0.94,-0.07,-0.01,-0.01,0.04,249
0.14,0.94,-0.07,0.00,-0.02,0.09,249
0.14,0.94,-0.07,-0.00,0.01,0.04,249
0.14,0.94,-0.07,0.00,0.02,-0.08,249
0.14,0.94,-0.07,0.05,-0.00,-0.09,249
0.14,0.94,-0.07,0.05,-0.03,-0.03,249
0.14,0.94,-0.07,0.01,-0.02,0.01,249
0.14,0.94,-0.07,0.00,-0.04,0.02,250
0.14,0.94,-0.07,0.02,-0.06,-0.02,249
0.14,0.94,-0.07,0.02,-0.03,-0.06,249
0.14,0.94,-0.07,0.00,-0.03,-0.02,249
0.14,0.94,-0.07,-0.02,-0.02,0.07,249
0.14,0.94,-0.07,-0.04,-0.01,0.05,249
0.14,0.94,-0.07,-0.05,-0.02,0.00,249
0.14,0.94,-0.07,-0.01,0.03,-0.02,250
0.14,0.94,-0.07,0.01,0.00,-0.04,249
0.14,0.94,-0.07,-0.02,-0.03,0.03,249
0.14,0.94,-0.07,0.00,-0.00,0.02,249
0.14,0.94,-0.07,0.01,-0.03,-0.05,249
0.14,0.94,-0.07,0.01,-0.02,-0.02,249
0.14,0.94,-0.07,0.01,-0.01,0.02,249
0.14,0.94,-0.07,-0.01,-0.02,0.01,249
0.14,0.94,-0.07,0.00,-0.00,0.05,249
0.14,0.94,-0.07,0.02,0.02,0.03,249
0.14,0.94,-0.07,0.00,0.04,-0.03,249
0.14,0.94,-0.07,-0.01,0.04,-0.00,250
0.14,0.94,-0.07,-0.03,0.02,0.01,249
0.14,0.94,-0.07,0.00,0.02,-0.02,249
0.14,0.94,-0.07,-0.00,0.03,-0.02,249
0.14,0.94,-0.07,-0.04,0.01,-0.02,249
0.14,0.94,-0.07,0.02,0.00,-0.01,249
0.14,0.94,-0.07,0.03,0.02,-0.00,249
0.14,0.94,-0.07,0.00,0.02,0.05,250
0.14,0.94,-0.07,0.02,0.01,0.08,249
0.14,0.94,-0.07,0.00,-0.00,0.06,249
0.14,0.94,-0.07,0.00,0.03,0.05,249
0.14,0.94,-0.07,0.03,0.03,0.05,250
0.14,0.94,-0.07,0.01,-0.03,0.07,249
0.14,0.94,-0.07,-0.03,-0.02,0.05,249
0.14,0.94,-0.07,-0.01,-0.02,-0.03,249
0.14,0.94,-0.07,0.01,-0.02,-0.08,249
0.14,0.94,-0.07,-0.03,0.02,-0.06,249
0.14,0.94,-0.07,-0.05,0.04,0.02,249
0.14,0.94,-0.07,-0.05,0.02,0.03,249
0.14,0.94,-0.07,-0.01,-0.01,-0.09,249
0.14,0.94,-0.07,0.01,-0.00,-0.11,250
0.14,0.94,-0.07,0.01,-0.02,-0.03,249
0.14,0.94,-0.07,0.00,-0.03,0.00,249
0.14,0.94,-0.07,-0.00,0.01,0.03,249
0.14,0.94,-0.07,0.03,-0.00,0.01,249
0.14,0.94,-0.07,0.05,-0.06,-0.04,249
0.14,0.94,-0.07,-0.01,-0.02,0.01,249
0.14,0.94,-0.07,-0.02,0.03,0.05,249
0.14,0.94,-0.07,0.03,0.00,0.06,249
0.14,0.94,-0.07,0.07,0.01,0.10,249
0.14,0.94,-0.07,0.07,0.06,0.08,249
0.14,0.94,-0.07,0.08,0.02,0.06,249
0.14,0.94,-0.07,0.08,-0.00,0.01,249
0.14,0.94,-0.07,0.03,0.03,0.01,250
0.14,0.94,-0.07,-0.04,0.01,0.07,249
0.14,0.94,-0.07,-0.04,-0.03,0.04,249
0.14,0.94,-0.07,-0.03,-0.02,-0.08,249
0.14,0.94,-0.07,-0.02,-0.05,-0.15,250
0.14,0.94,-0.07,-0.00,-0.03,-0.07,249
0.14,0.94,-0.07,-0.03,0.02,-0.00,249
0.14,0.94,-0.07,-0.05,0.05,-0.02,249
0.14,0.94,-0.07,-0.04,0.02,-0.05,249
0.14,0.94,-0.07,0.02,-0.01,-0.05,249
0.13,0.94,-0.07,0.02,0.01,0.03,249
0.14,0.94,-0.07,0.03,0.02,0.07,250
0.14,0.94,-0.07,0.03,-0.00,0.02,250
0.14,0.94,-0.07,0.06,0.03,-0.01,249
0.14,0.94,-0.07,0.06,0.05,0.03,250
0.14,0.94,-0.07,0.03,0.02,0.05,249
0.14,0.94,-0.07,0.02,0.01,0.07,249
0.14,0.94,-0.07,0.02,0.03,0.09,249
0.14,0.94,-0.07,0.02,0.05,0.04,249
0.14,0.94,-0.07,-0.02,0.02,-0.04,249
0.14,0.94,-0.07,-0.02,0.01,-0.05,249
0.14,0.94,-0.07,0.02,0.03,-0.01,249
0.14,0.94,-0.07,0.02,-0.00,0.03,249
0.14,0.94,-0.07,-0.02,-0.03,-0.02,249
0.14,0.94,-0.07,-0.04,0.01,-0.07,249
0.14,0.94,-0.07,-0.02,-0.00,-0.07,249
0.14,0.94,-0.07,-0.02,0.00,-0.06,249
0.14,0.94,-0.07,0.01,0.01,-0.01,249
0.14,0.94,-0.07,0.05,0.01,0.02,249
0.14,0.94,-0.07,0.04,-0.00,0.02,249
0.14,0.94,-0.07,0.03,0.04,0.05,249
0.14,0.94,-0.07,0.01,0.05,0.09,249
0.14,0.94,-0.07,0.06,0.04,0.10,249
0.14,0.94,-0.07,0.07,0.04,0.07,250
0.14,0.94,-0.07,0.06,0.01,0.04,249
0.14,0.94,-0.07,0.07,0.00,0.01,249
0.14,0.94,-0.07,-0.00,0.01,0.01,249
0.14,0.94,-0.07,-0.05,-0.02,-0.00,249
0.14,0.94,-0.07,-0.06,-0.07,-0.04,249
0.14,0.94,-0.07,-0.05,-0.05,-0.11,249
0.14,0.94,-0.07,-0.06,-0.00,-0.12,250
0.14,0.94,-0.07,-0.06,-0.01,-0.11,249
0.14,0.94,-0.07,-0.06,-0.00,-0.13,249
0.14,0.94,-0.07,-0.07,-0.02,-0.13,250
0.14,0.94,-0.07,-0.07,-0.04,-0.09,249
0.14,0.94,-0.07,-0.04,-0.02,-0.03,249
0.14,0.94,-0.07,0.04,-0.00,0.03,249
0.14,0.94,-0.07,0.09,0.02,0.10,249
0.14,0.94,-0.07,0.05,0.03,0.14,250
0.14,0.94,-0.07,0.04,0.04,0.11,249
0.14,0.94,-0.07,0.07,0.01,0.06,249
0.14,0.94,-0.07,0.04,-0.01,0.06,249
0.14,0.94,-0.07,0.04,0.01,0.11,249
0.14,0.94,-0.07,0.03,0.02,0.09,249
0.14,0.94,-0.07,0.00,0.03,-0.02,249
0.14,0.94,-0.07,-0.01,-0.01,-0.10,249
0.14,0.94,-0.07,-0.02,-0.03,-0.10,249
0.14,0.94,-0.07,0.00,-0.01,-0.05,249
0.14,0.94,-0.07,-0.05,-0.02,-0.04,249
0.14,0.94,-0.07,-0.08,-0.01,-0.05,249
0.14,0.94,-0.07,-0.06,0.02,-0.07,249
0.14,0.94,-0.07,-0.03,-0.04,-0.10,250
0.14,0.94,-0.07,0.01,-0.01,-0.04,250
0.14,0.94,-0.07,0.00,0.04,0.04,249
0.14,0.94,-0.07,0.00,0.01,0.08,249
0.14,0.94,-0.07,0.02,0.03,0.05,250
0.14,0.94,-0.07,0.02,0.01,0.01,250
0.14,0.94,-0.07,0.02,0.02,0.05,250
0.14,0.94,-0.07,0.04,0.03,0.12,249
0.14,0.94,-0.07,0.06,0.06,0.13,249
0.14,0.94,-0.07,0.04,0.03,0.05,250
0.14,0.94,-0.07,0.02,-0.01,-0.04,249
0.14,0.94,-0.07,-0.00,0.01,-0.05,249
0.14,0.94,-0.07,-0.00,0.04,-0.01,250
0.14,0.94,-0.07,-0.02,0.01,0.04,249
0.14,0.94,-0.07,-0.01,-0.00,0.02,249
0.14,0.94,-0.07,0.01,-0.00,-0.05,250
0.14,0.94,-0.07,-0.03,-0.04,-0.05,250
0.14,0.94,-0.07,-0.06,-0.02,-0.01,249
0.14,0.94,-0.07,-0.04,0.01,-0.00,249
0.14,0.94,-0.07,-0.02,-0.00,-0.00,249
0.14,0.94,-0.07,-0.02,-0.01,-0.00,249
0.14,0.94,-0.07,0.01,0.01,-0.01,249
0.14,0.94,-0.07,0.06,0.03,0.04,249
0.14,0.94,-0.07,0.08,0.00,0.11,250
0.14,0.94,-0.07,0.06,0.01,0.06,250
0.14,0.94,-0.07,0.03,0.08,-0.00,249
0.14,0.94,-0.07,0.00,0.05,0.00,249
0.14,0.94,-0.07,0.02,-0.01,-0.01,249
0.14,0.94,-0.07,-0.01,-0.05,-0.02,250
0.14,0.94,-0.07,-0.05,-0.04,-0.03,249
0.14,0.94,-0.07,-0.03,-0.03,-0.06,249
0.14,0.94,-0.07,-0.00,-0.00,-0.08,249
0.14,0.94,-0.07,-0.02,0.01,-0.02,249
0.14,0.94,-0.07,-0.02,-0.00,0.03,249
0.14,0.94,-0.07,-0.03,-0.00,0.00,250
0.14,0.94,-0.07,-0.05,-0.04,-0.05,249
0.14,0.94,-0.07,0.01,-0.04,-0.07,249
0.14,0.94,-0.07,0.03,0.01,-0.02,249
0.14,0.94,-0.07,-0.02,0.03,0.08,250
0.14,0.94,-0.07,0.00,0.07,0.06,249
0.14,0.94,-0.07,0.05,0.08,0.02,249
0.14,0.94,-0.07,0.05,-0.00,0.01,249
0.14,0.94,-0.07,0.02,-0.01,-0.00,249
0.14,0.94,-0.07,0.04,0.01,0.10,249
0.14,0.94,-0.07,0.04,-0.02,0.11,249
0.14,0.94,-0.07,0.05,-0.03,0.08,249
0.14,0.94,-0.07,0.05,0.01,0.05,249
0.14,0.94,-0.07,0.03,0.02,-0.00,249
0.14,0.94,-0.07,0.01,0.01,0.05,250
0.14,0.94,-0.07,-0.01,0.02,0.02,250
0.14,0.94,-0.07,-0.04,0.05,-0.02,249
0.14,0.94,-0.07,-0.05,0.01,-0.08,249
0.14,0.94,-0.07,-0.04,-0.02,-0.18,249
0.14,0.94,-0.07,-0.04,-0.02,-0.19,249
0.13,0.94,-0.07,-0.06,-0.01,-0.09,249
0.14,0.94,-0.07,-0.06,-0.00,-0.04,249
0.14,0.94,-0.07,-0.03,0.01,-0.05,249
0.14,0.94,-0.07,0.00,0.01,-0.05,249
0.14,0.94,-0.07,0.03,-0.01,0.01,249
0.14,0.94,-0.07,-0.00,0.01,0.05,249
0.14,0.94,-0.07,-0.03,0.05,0.01,249
0.14,0.94,-0.07,0.00,0.02,-0.00,249
0.14,0.94,-0.07,0.04,-0.02,0.05,249
0.14,0.94,-0.07,0.03,0.00,0.03,249
0.14,0.94,-0.07,0.02,0.01,0.02,249
0.14,0.94,-0.07,-0.02,0.03,0.03,249
0.14,0.94,-0.07,-0.04,0.08,0.06,249
0.14,0.94,-0.07,-0.05,0.03,0.03,249
0.14,0.94,-0.07,-0.05,-0.03,-0.05,250
0.14,0.94,-0.07,0.00,-0.01,-0.06,249
0.14,0.94,-0.07,-0.02,-0.02,-0.00,249
0.14,0.94,-0.07,-0.06,-0.06,0.02,249
0.14,0.94,-0.07,-0.04,-0.07,-0.00,249
0.14,0.94,-0.07,0.02,-0.04,-0.02,249
0.14,0.94,-0.07,0.02,0.01,-0.02,249
0.14,0.94,-0.07,0.01,-0.03,-0.01,249
0.14,0.94,-0.07,0.04,-0.01,-0.00,250
0.14,0.94,-0.07,0.04,0.01,-0.03,249
0.14,0.94,-0.07,0.03,0.01,-0.02,249
0.14,0.94,-0.07,0.03,0.02,0.03,249
0.14,0.94,-0.07,-0.02,-0.02,0.06,249
0.14,0.94,-0.07,-0.02,-0.01,0.05,249
0.14,0.94,-0.07,0.03,-0.02,0.02,249
0.14,0.94,-0.07,0.03,-0.04,0.01,250
0.14,0.94,-0.07,0.01,-0.00,0.01,250
0.14,0.94,-0.07,0.02,0.03,-0.00,249
0.14,0.94,-0.07,0.02,0.01,0.05,249
0.14,0.94,-0.07,-0.01,-0.02,0.03,249
0.14,0.94,-0.07,-0.01,-0.03,-0.07,250
0.14,0.94,-0.07,-0.01,-0.00,-0.08,250
0.14,0.94,-0.07,-0.04,-0.00,-0.05,249
0.14,0.94,-0.07,-0.03,-0.04,-0.03,250
0.14,0.94,-0.07,-0.03,-0.03,-0.02,249
0.14,0.94,-0.07,-0.05,-0.05,-0.05,249
0.14,0.94,-0.07,-0.05,-0.01,-0.05,249
0.14,0.94,-0.07,-0.05,0.00,-0.01,249
0.14,0.94,-0.07,0.00,-0.01,0.07,249
0.14,0.94,-0.07,0.06,0.01,0.06,249
0.14,0.94,-0.07,0.06,0.00,0.00,249
0.14,0.94,-0.07,0.06,0.01,0.01,249
0.14,0.94,-0.07,0.04,-0.00,0.03,249
0.14,0.94,-0.07,0.03,0.00,0.07,250
0.14,0.94,-0.07,-0.00,0.02,0.08,249
0.14,0.94,-0.07,-0.00,0.00,0.04,250
0.14,0.94,-0.07,0.04,-0.01,-0.01,249
0.14,0.94,-0.07,0.02,0.02,-0.02,249
0.14,0.94,-0.07,-0.00,0.03,0.03,249
0.14,0.94,-0.07,-0.03,-0.00,0.01,249
0.14,0.94,-0.07,-0.03,-0.01,-0.03,249
0.14,0.94,-0.07,-0.06,-0.02,-0.06,249
0.14,0.94,-0.07,-0.06,-0.05,-0.10,249
0.14,0.94,-0.07,-0.02,-0.02,-0.04,249
0.14,0.94,-0.07,-0.08,0.02,0.04,249
0.14,0.94,-0.07,-0.07,-0.03,0.04,249
0.14,0.94,-0.07,0.00,-0.07,0.02,249
0.14,0.94,-0.07,0.03,-0.02,-0.03,250
0.14,0.94,-0.07,0.05,0.01,-0.00,249
0.14,0.94,-0.07,0.07,0.05,0.10,249
0.14,0.94,-0.07,0.09,0.05,0.18,249
0.14,0.94,-0.07,0.06,0.01,0.13,250
0.14,0.94,-0.07,0.06,0.01,0.06,250
0.14,0.94,-0.07,0.06,0.00,0.09,250
0.14,0.94,-0.07,-0.01,-0.02,0.08,249
0.14,0.94,-0.07,-0.03,-0.06,0.03,249
0.14,0.94,-0.07,-0.02,-0.05,-0.04,250
0.14,0.94,-0.07,-0.03,-0.03,-0.07,249
0.14,0.94,-0.07,-0.04,-0.06,-0.05,249
0.14,0.94,-0.07,-0.08,-0.03,-0.06,249
0.14,0.94,-0.07,-0.06,0.01,-0.12,249
0.14,0.94,-0.07,-0.03,0.01,-0.11,249
0.14,0.94,-0.07,-0.03,0.00,-0.09,249
0.14,0.94,-0.07,-0.01,-0.03,-0.05,249
0.14,0.94,-0.07,-0.02,-0.02,-0.02,249
0.14,0.94,-0.07,-0.02,-0.00,-0.03,249
0.14,0.94,-0.07,0.01,0.01,-0.00,250
0.14,0.94,-0.07,0.03,-0.02,0.06,250
0.14,0.94,-0.07,0.04,-0.02,0.11,249
0.14,0.94,-0.07,0.03,-0.01,0.14,249
0.14,0.94,-0.07,0.02,-0.01,0.15,249
0.14,0.94,-0.07,0.03,0.01,0.11,249
0.14,0.94,-0.07,0.03,0.04,0.01,249
0.14,0.94,-0.07,0.03,0.03,-0.03,249
0.14,0.94,-0.07,0.03,-0.00,0.03,249
0.14,0.94,-0.07,-0.01,0.03,0.07,250
0.14,0.94,-0.07,-0.02,-0.00,0.03,249
0.14,0.94,-0.07,-0.03,-0.05,-0.05,249
0.14,0.94,-0.07,-0.03,-0.05,-0.09,249
0.14,0.94,-0.07,-0.02,-0.03,-0.07,249
0.14,0.94,-0.07,-0.00,-0.00,-0.04,250
0.14,0.94,-0.07,-0.06,-0.04,-0.01,249
0.14,0.94,-0.07,-0.06,-0.04,-0.06,249
0.14,0.94,-0.07,0.00,0.00,-0.10,249
0.14,0.94,-0.07,0.02,0.02,-0.05,249
0.14,0.94,-0.07,0.04,0.05,0.07,249
0.14,0.94,-0.07,0.04,0.07,0.13,249
0.14,0.94,-0.07,0.01,0.03,0.06,249
0.14,0.94,-0.07,-0.01,-0.02,0.01,249
0.14,0.94,-0.07,0.00,0.01,0.01,249
0.14,0.94,-0.07,0.00,-0.00,0.01,249
0.14,0.94,-0.07,-0.01,-0.01,0.03,249
0.14,0.94,-0.07,-0.05,0.01,0.03,249
0.14,0.94,-0.07,-0.07,-0.01,-0.06,249
0.14,0.94,-0.07,-0.03,-0.02,-0.14,249
0.14,0.94,-0.07,-0.02,0.00,-0.10,249
0.14,0.94,-0.07,-0.04,0.00,-0.07,249
0.14,0.94,-0.07,-0.07,-0.02,-0.05,249
0.14,0.94,-0.07,-0.08,-0.02,-0.06,249
0.14,0.94,-0.07,0.00,0.00,-0.08,249
0.14,0.94,-0.07,0.02,0.01,-0.00,249
0.14,0.94,-0.07,-0.02,0.01,0.05,249
0.14,0.94,-0.07,0.02,0.01,0.07,249
0.14,0.94,-0.07,0.03,0.03,0.07,250
0.14,0.94,-0.07,0.00,0.01,0.04,250
0.14,0.94,-0.07,0.01,0.01,0.05,249
0.14,0.94,-0.07,0.03,0.02,0.06,250
0.14,0.94,-0.07,0.06,0.05,0.09,249
0.14,0.94,-0.07,0.03,0.05,0.12,250
0.14,0.94,-0.07,0.00,0.01,0.05,249
0.14,0.94,-0.07,-0.01,-0.00,-0.04,249
0.14,0.94,-0.07,-0.04,-0.05,-0.04,249
0.14,0.94,-0.07,-0.08,-0.06,-0.08,249
0.14,0.94,-0.07,-0.05,-0.04,-0.12,249
0.14,0.94,-0.07,0.01,-0.01,-0.12,249
0.14,0.94,-0.07,-0.01,-0.00,-0.10,249
0.13,0.94,-0.07,-0.04,0.01,-0.02,249
0.14,0.94,-0.07,0.00,0.05,0.04,249
0.14,0.94,-0.07,0.03,0.06,0.03,249
0.13,0.94,-0.07,0.01,0.01,0.01,249
0.14,0.94,-0.07,0.03,-0.03,0.01,249
0.14,0.94,-0.07,0.06,-0.01,0.04,249
0.14,0.94,-0.07,0.07,-0.03,0.08,250
0.14,0.94,-0.07,0.06,-0.01,0.10,249
0.14,0.94,-0.07,0.03,0.06,0.09,249
0.14,0.94,-0.07,0.02,0.08,0.07,249
0.14,0.94,-0.07,0.00,0.01,0.08,249
0.14,0.94,-0.07,0.02,0.02,0.09,249
0.14,0.94,-0.07,0.02,0.04,0.05,249
0.14,0.94,-0.07,-0.03,-0.04,-0.03,249
0.14,0.94,-0.07,-0.02,-0.05,-0.10,249
0.14,0.94,-0.07,-0.03,-0.04,-0.11,250
0.14,0.94,-0.07,-0.03,-0.04,-0.04,249
0.14,0.94,-0.07,-0.07,0.01,0.01,249
0.14,0.94,-0.07,-0.06,-0.01,-0.01,249
0.14,0.94,-0.07,-0.02,-0.02,-0.05,249
0.14,0.94,-0.07,-0.03,0.01,-0.06,250
0.14,0.94,-0.07,0.01,0.05,-0.01,249
0.14,0.94,-0.07,0.03,0.07,0.07,249
0.14,0.94,-0.07,0.05,0.07,0.07,249
0.14,0.94,-0.07,0.07,0.05,-0.01,249
0.14,0.94,-0.07,0.06,0.06,-0.00,250
0.14,0.94,-0.07,0.03,0.04,0.05,249
0.14,0.94,-0.07,0.03,0.01,0.06,250
0.14,0.94,-0.07,0.01,0.04,0.06,249
0.14,0.94,-0.07,-0.03,0.03,0.02,249
0.14,0.94,-0.07,-0.01,-0.01,-0.03,249
0.14,0.94,-0.07,-0.01,-0.04,-0.05,249
0.14,0.94,-0.07,-0.02,-0.00,-0.04,249
0.14,0.94,-0.07,0.01,0.03,-0.05,249
0.14,0.94,-0.07,-0.03,0.02,-0.07,249
0.14,0.94,-0.07,-0.04,0.03,-0.08,250
0.14,0.94,-0.07,-0.02,0.03,-0.10,249
0.14,0.94,-0.07,-0.02,0.05,-0.07,249
0.14,0.94,-0.07,0.00,0.05,-0.00,249
0.14,0.94,-0.07,-0.02,-0.01,0.01,249
0.14,0.94,-0.07,-0.02,-0.05,-0.01,249
0.14,0.94,-0.07,0.01,-0.05,-0.03,249
0.14,0.94,-0.07,0.01,-0.01,-0.03,249
0.14,0.94,-0.07,0.01,0.01,0.05,249
0.14,0.94,-0.07,0.00,0.02,0.12,249
0.14,0.94,-0.07,0.01,0.06,0.10,249
0.14,0.94,-0.07,0.05,0.08,0.05,249
0.14,0.94,-0.07,0.05,0.09,0.05,249
0.14,0.94,-0.07,-0.02,0.02,0.04,250
0.14,0.94,-0.07,-0.04,-0.02,0.04,249
0.14,0.94,-0.07,-0.02,-0.02,-0.01,250
0.14,0.94,-0.07,-0.05,-0.05,-0.12,249
0.14,0.94,-0.07,-0.06,-0.05,-0.14,249
0.14,0.94,-0.07,-0.05,-0.04,-0.11,250
0.14,0.94,-0.07,-0.02,-0.05,-0.06,249
0.14,0.94,-0.07,-0.01,-0.02,-0.05,249
0.14,0.94,-0.07,-0.04,-0.00,-0.07,249
0.14,0.94,-0.07,-0.01,-0.02,-0.07,249
0.14,0.94,-0.07,0.03,0.02,-0.01,249
0.14,0.94,-0.07,0.03,0.02,0.02,249
0.14,0.94,-0.07,0.06,-0.01,-0.00,250
0.14,0.94,-0.07,0.02,-0.01,0.03,249
0.14,0.94,-0.07,-0.01,0.03,0.08,249
0.14,0.94,-0.07,0.04,0.03,0.08,249
0.14,0.94,-0.07,0.01,0.00,0.10,249
0.14,0.94,-0.07,0.01,0.01,0.11,250
0.14,0.94,-0.07,0.04,0.01,0.05,249
0.14,0.94,-0.07,0.00,0.01,0.02,250
0.14,0.94,-0.07,-0.03,0.01,0.04,249
0.14,0.94,-0.07,-0.02,0.01,0.05,249
0.14,0.94,-0.07,-0.05,-0.06,-0.00,249
0.14,0.94,-0.07,-0.10,-0.08,-0.09,249
0.14,0.94,-0.07,-0.07,-0.05,-0.12,249
0.14,0.94,-0.07,-0.03,-0.01,-0.07,250
0.14,0.94,-0.07,-0.04,0.01,-0.00,249
0.14,0.94,-0.07,-0.03,-0.00,-0.01,249
0.14,0.94,-0.07,0.00,0.00,-0.05,249
0.14,0.94,-0.07,0.00,-0.02,-0.07,249
0.14,0.94,-0.07,0.04,-0.04,-0.03,249
0.14,0.94,-0.07,0.05,0.01,0.07,249
0.14,0.94,-0.07,0.05,0.07,0.13,249
0.14,0.94,-0.07,0.08,0.05,0.13,250
0.14,0.94,-0.07,0.07,0.02,0.10,249
0.14,0.94,-0.07,0.00,0.05,0.08,250
0.14,0.94,-0.07,0.01,0.05,0.08,249
0.14,0.94,-0.07,0.00,0.00,0.07,249
0.14,0.94,-0.07,-0.03,-0.00,0.00,249
0.14,0.94,-0.07,-0.03,0.01,-0.05,249
0.14,0.94,-0.07,-0.03,-0.00,-0.07,249
0.14,0.94,-0.07,-0.06,-0.01,-0.04,249
0.14,0.94,-0.07,-0.08,-0.02,-0.03,250
0.14,0.94,-0.07,-0.05,-0.02,-0.06,249
0.14,0.94,-0.07,-0.02,-0.04,-0.11,250
0.14,0.94,-0.07,-0.03,-0.02,-0.12,249
0.14,0.94,-0.07,-0.02,-0.00,-0.08,249
0.14,0.94,-0.07,0.01,0.02,-0.01,249
0.14,0.94,-0.07,-0.02,0.06,0.05,249
0.14,0.94,-0.07,-0.02,0.04,0.04,250
0.14,0.94,-0.07,0.05,0.04,0.05,249
0.14,0.94,-0.07,0.05,0.04,0.06,249
0.14,0.94,-0.07,0.04,0.03,0.09,249
0.14,0.94,-0.07,0.04,0.06,0.10,250
0.14,0.94,-0.07,0.03,0.07,0.07,249
0.14,0.94,-0.07,0.05,0.03,0.04,249
0.14,0.94,-0.07,0.03,0.03,0.01,249
0.14,0.94,-0.07,-0.02,0.01,0.03,249
0.14,0.94,-0.07,-0.05,-0.04,0.01,249
0.14,0.94,-0.07,-0.09,-0.07,-0.07,249
0.14,0.94,-0.07,-0.07,-0.04,-0.08,250
0.14,0.94,-0.07,-0.02,-0.05,-0.07,249
0.14,0.94,-0.07,-0.00,-0.02,-0.07,249
0.14,0.94,-0.07,0.02,0.05,-0.03,250
0.14,0.94,-0.07,0.03,0.06,0.04,249
0.14,0.94,-0.07,0.02,0.03,0.10,249
0.14,0.94,-0.07,0.02,0.01,0.09,249
0.14,0.94,-0.07,0.06,0.01,0.10,249
0.14,0.94,-0.07,0.05,0.00,0.13,249
0.14,0.94,-0.07,0.04,-0.01,0.08,249
0.14,0.94,-0.07,0.06,-0.00,0.05,249
0.14,0.94,-0.07,0.04,0.02,0.03,249
0.14,0.94,-0.07,0.02,0.01,-0.02,249
0.14,0.94,-0.07,0.00,0.04,-0.02,249
0.14,0.94,-0.07,-0.04,0.06,-0.08,249
0.14,0.94,-0.07,-0.06,-0.02,-0.16,249
0.14,0.94,-0.07,-0.04,-0.04,-0.20,249
0.14,0.94,-0.07,-0.00,0.03,-0.14,250
0.14,0.94,-0.07,-0.00,0.02,-0.06,249
0.14,0.94,-0.07,-0.01,-0.04,-0.06,249
0.14,0.94,-0.07,-0.01,-0.02,-0.06,249
0.13,0.94,-0.07,-0.02,-0.00,-0.07,249
0.14,0.94,-0.07,0.01,-0.02,-0.05,250
0.14,0.94,-0.07,0.02,0.04,0.09,249
0.14,0.94,-0.07,0.05,0.08,0.15,250
0.14,0.94,-0.07,0.06,0.05,0.13,249
0.14,0.94,-0.07,0.06,0.02,0.10,249
0.14,0.94,-0.07,0.06,0.07,0.07,249
0.14,0.94,-0.07,0.05,0.05,0.10,249
0.14,0.94,-0.07,0.03,0.02,0.11,249
0.14,0.94,-0.07,-0.00,0.03,0.12,250
0.14,0.94,-0.07,0.01,-0.02,0.06,249
0.14,0.94,-0.07,0.02,-0.00,-0.03,250
0.14,0.94,-0.07,0.01,0.02,-0.07,249
0.14,0.94,-0.07,-0.03,-0.01,-0.06,249
0.14,0.94,-0.07,-0.06,-0.04,-0.03,249
0.14,0.94,-0.07,-0.05,-0.02,-0.08,249
0.14,0.94,-0.07,-0.04,-0.02,-0.14,249
0.14,0.94,-0.07,-0.05,-0.04,-0.14,249
0.14,0.94,-0.07,-0.02,-0.01,-0.08,249
0.14,0.94,-0.07,0.01,0.01,0.00,249
0.14,0.94,-0.07,0.02,0.01,0.01,250
0.14,0.94,-0.07,0.03,0.03,0.01,250
0.14,0.94,-0.07,0.04,0.00,0.03,249
0.14,0.94,-0.07,0.06,0.01,0.07,249
0.14,0.94,-0.07,0.06,0.07,0.12,249
0.14,0.94,-0.07,0.08,0.09,0.14,249
0.14,0.94,-0.07,0.07,0.06,0.11,249
0.14,0.94,-0.07,0.05,0.01,0.03,250
0.14,0.94,-0.07,0.01,-0.01,0.00,249
0.14,0.94,-0.07,-0.03,0.01,0.05,249
0.14,0.94,-0.07,-0.04,0.01,0.04,249
0.14,0.94,-0.07,-0.03,-0.00,-0.04,249
0.14,0.94,-0.07,-0.05,-0.02,-0.10,249
0.14,0.94,-0.07,-0.06,-0.02,-0.13,249
0.14,0.94,-0.07,-0.05,-0.04,-0.07,249
0.14,0.94,-0.07,-0.07,-0.04,-0.05,249
0.14,0.94,-0.07,-0.05,-0.01,-0.07,250
0.14,0.94,-0.07,0.00,-0.01,-0.07,249
0.14,0.94,-0.07,0.06,0.00,-0.02,249
0.14,0.94,-0.07,0.07,0.03,0.07,249
0.14,0.94,-0.07,0.05,0.09,0.13,249
0.14,0.94,-0.07,0.06,0.14,0.16,249
0.14,0.94,-0.07,0.08,0.09,0.15,249
0.14,0.94,-0.07,0.07,0.06,0.13,249
0.14,0.94,-0.07,0.06,0.04,0.11,250
0.14,0.94,-0.07,0.03,-0.02,0.08,249
0.14,0.94,-0.07,-0.02,-0.07,0.03,249
0.14,0.94,-0.07,-0.08,-0.04,0.00,249
0.14,0.94,-0.07,-0.06,0.00,-0.04,249
0.14,0.94,-0.07,-0.04,-0.02,-0.05,249
0.14,0.94,-0.07,-0.06,-0.04,-0.05,249
0.14,0.94,-0.07,-0.05,-0.01,-0.10,249
0.14,0.94,-0.07,-0.05,-0.07,-0.15,249
0.14,0.94,-0.07,-0.04,-0.08,-0.15,249
0.14,0.94,-0.07,-0.07,-0.04,-0.13,249
0.14,0.94,-0.07,-0.05,-0.03,-0.05,249
0.14,0.94,-0.07,-0.03,0.01,-0.01,249
0.14,0.94,-0.07,-0.00,0.02,-0.04,249
0.14,0.94,-0.07,0.03,0.04,-0.03,249
0.14,0.94,-0.07,0.04,0.02,0.01,249
0.14,0.94,-0.07,0.06,0.01,0.12,249
0.14,0.94,-0.07,0.05,0.04,0.17,249
0.14,0.94,-0.07,0.05,0.06,0.12,249
0.14,0.94,-0.07,0.08,0.04,0.08,249
0.14,0.94,-0.07,0.07,0.01,0.04,249
0.14,0.94,-0.07,0.02,0.01,0.01,249
0.14,0.94,-0.07,-0.05,0.04,0.02,250
0.14,0.94,-0.07,-0.04,0.04,0.01,249
0.14,0.94,-0.07,0.00,0.00,-0.10,249
0.14,0.94,-0.07,-0.05,-0.04,-0.16,249
0.14,0.94,-0.07,-0.05,-0.01,-0.10,249
0.14,0.94,-0.07,-0.05,0.03,-0.07,249
0.14,0.94,-0.07,-0.07,0.02,-0.08,249
0.14,0.94,-0.07,-0.03,0.03,-0.08,249
0.14,0.94,-0.07,-0.01,0.01,-0.05,249
0.14,0.94,-0.07,-0.04,-0.02,0.00,249
0.14,0.94,-0.07,-0.03,-0.02,0.05,249
0.14,0.94,-0.07,0.02,-0.01,0.08,250
0.14,0.94,-0.07,0.07,0.04,0.08,249
0.14,0.94,-0.07,0.10,0.08,0.04,249
0.14,0.94,-0.07,0.06,0.07,0.03,249
0.14,0.94,-0.07,0.02,0.03,0.04,249
0.14,0.94,-0.07,0.04,0.02,0.03,250
0.14,0.94,-0.07,0.02,0.03,0.04,249
0.14,0.94,-0.07,-0.02,0.01,-0.03,249
0.14,0.94,-0.07,-0.07,-0.03,-0.05,249
0.14,0.94,-0.07,-0.08,-0.05,-0.05,250
0.14,0.94,-0.07,-0.06,-0.01,-0.09,249
0.14,0.94,-0.07,-0.07,-0.02,-0.07,250
0.14,0.94,-0.07,-0.06,-0.06,-0.10,249
0.14,0.94,-0.07,-0.06,-0.07,-0.15,249
0.14,0.94,-0.07,-0.04,-0.05,-0.09,250
0.14,0.94,-0.07,-0.00,-0.04,-0.02,249
0.14,0.94,-0.07,0.00,0.01,0.03,250
0.14,0.94,-0.07,0.03,0.04,-0.01,249
0.14,0.94,-0.07,0.04,0.01,-0.05,249
0.14,0.94,-0.07,0.03,0.02,0.02,249
0.14,0.94,-0.07,0.03,0.05,0.11,249
0.14,0.94,-0.07,0.03,0.06,0.11,249
0.14,0.94,-0.07,0.07,0.02,0.11,249
0.14,0.94,-0.07,0.09,-0.00,0.11,249
0.14,0.94,-0.07,0.06,0.01,0.08,249
0.14,0.94,-0.07,-0.01,-0.01,0.05,249
0.14,0.94,-0.07,-0.04,0.01,-0.00,249
0.14,0.94,-0.07,-0.06,0.00,-0.11,249
0.14,0.94,-0.07,-0.07,-0.06,-0.15,249
0.14,0.94,-0.07,-0.08,-0.04,-0.12,249
0.14,0.94,-0.07,-0.09,-0.01,-0.08,249
0.14,0.94,-0.07,-0.07,-0.03,-0.08,249
0.14,0.94,-0.07,-0.06,-0.01,-0.12,249
0.14,0.94,-0.07,-0.05,-0.01,-0.14,249
0.14,0.94,-0.07,-0.03,-0.03,-0.14,249
0.14,0.94,-0.07,-0.00,0.01,-0.05,249
0.14,0.94,-0.07,0.05,0.10,0.07,249
0.14,0.94,-0.07,0.07,0.09,0.10,250
0.14,0.94,-0.07,0.05,0.04,0.09,249
0.14,0.94,-0.07,0.10,0.06,0.12,249
0.14,0.94,-0.07,0.13,0.07,0.14,250
0.14,0.94,-0.07,0.07,0.02,0.16,249
0.14,0.94,-0.07,0.03,0.01,0.14,250
0.14,0.94,-0.07,0.02,-0.04,0.02,249
0.14,0.94,-0.07,-0.00,-0.08,-0.05,249
0.14,0.94,-0.07,-0.03,-0.00,-0.05,249
0.14,0.94,-0.07,-0.08,0.04,-0.07,249
0.14,0.94,-0.07,-0.08,0.02,-0.12,249
0.14,0.94,-0.07,-0.05,-0.01,-0.17,250
0.14,0.94,-0.07,-0.05,-0.02,-0.22,249
0.14,0.94,-0.07,-0.07,-0.03,-0.23,249
0.14,0.94,-0.07,-0.04,-0.02,-0.15,249
0.14,0.94,-0.07,-0.01,-0.01,-0.08,249
0.14,0.94,-0.07,-0.01,-0.00,-0.05,249
0.14,0.94,-0.07,0.04,0.02,0.04,249
0.14,0.94,-0.07,0.08,0.04,0.11,249
0.14,0.94,-0.07,0.07,0.06,0.18,249
0.14,0.94,-0.07,0.05,0.04,0.24,250
0.14,0.94,-0.07,0.06,0.04,0.22,249
0.14,0.94,-0.07,0.08,0.06,0.11,249
0.14,0.94,-0.07,0.06,0.05,0.09,249
0.14,0.94,-0.07,-0.00,0.02,0.06,249
0.14,0.94,-0.07,0.00,0.02,-0.01,249
0.14,0.94,-0.07,-0.04,0.01,-0.06,250
0.14,0.94,-0.07,-0.13,0.01,-0.10,249
0.14,0.94,-0.07,-0.12,-0.03,-0.14,249
0.14,0.94,-0.07,-0.10,-0.04,-0.18,249
0.14,0.94,-0.07,-0.11,-0.02,-0.16,249
0.14,0.94,-0.07,-0.06,-0.03,-0.07,249
0.14,0.94,-0.07,0.01,-0.01,-0.07,249
0.14,0.94,-0.07,0.05,0.01,-0.04,249
0.14,0.94,-0.07,0.03,0.04,0.06,250
0.14,0.94,-0.07,-0.00,0.08,0.11,249
0.14,0.94,-0.07,-0.01,0.06,0.14,249
0.14,0.94,-0.07,0.03,0.04,0.13,249
0.14,0.94,-0.07,0.03,0.04,0.07,250
0.14,0.94,-0.07,0.00,0.05,0.06,249
0.14,0.94,-0.07,-0.02,0.06,0.07,249
0.14,0.94,-0.07,-0.03,0.04,0.08,249
0.14,0.94,-0.07,-0.03,0.01,-0.00,250
0.14,0.94,-0.07,-0.01,-0.02,-0.10,249
0.14,0.94,-0.07,-0.03,-0.02,-0.08,249
0.14,0.94,-0.07,-0.08,-0.02,-0.06,249
0.14,0.94,-0.07,-0.06,-0.06,-0.07,250
0.14,0.94,-0.07,-0.05,-0.05,-0.07,249
0.14,0.94,-0.07,-0.02,-0.01,-0.09,249
0.14,0.94,-0.07,-0.00,-0.04,-0.14,250
0.14,0.94,-0.07,-0.03,-0.04,-0.06,249
0.14,0.94,-0.07,0.00,0.04,0.05,249
0.14,0.94,-0.07,0.07,0.03,0.05,249
0.14,0.94,-0.07,0.07,-0.02,-0.01,249
0.14,0.94,-0.07,0.06,0.02,-0.02,249
0.14,0.94,-0.07,0.05,0.03,0.07,249
0.14,0.94,-0.07,0.06,0.01,0.16,249
0.14,0.94,-0.07,0.06,0.02,0.15,249
0.14,0.94,-0.07,0.04,0.01,0.06,249
0.14,0.94,-0.07,0.05,-0.00,0.00,249
0.14,0.94,-0.07,0.00,-0.00,0.01,249
0.14,0.94,-0.07,-0.06,-0.01,0.05,249
0.14,0.94,-0.07,-0.04,-0.03,0.07,249
0.14,0.94,-0.07,-0.05,-0.01,-0.00,249
0.14,0.94,-0.07,-0.08,-0.03,-0.14,249
0.14,0.94,-0.07,-0.05,-0.06,-0.17,249
0.14,0.94,-0.07,-0.06,-0.04,-0.08,249
0.14,0.94,-0.07,-0.04,0.01,-0.04,249
0.14,0.94,-0.07,-0.05,0.01,-0.07,249
0.14,0.94,-0.07,-0.03,-0.00,-0.10,249
0.14,0.94,-0.07,0.02,0.02,-0.07,249
0.14,0.94,-0.07,0.02,0.04,0.01,249
0.14,0.94,-0.07,0.02,0.03,0.05,250
0.14,0.94,-0.07,0.03,-0.00,0.08,249
0.14,0.94,-0.07,0.06,-0.02,0.12,249
0.14,0.94,-0.07,0.06,0.01,0.07,249
0.14,0.94,-0.07,0.08,0.03,0.05,249
0.14,0.94,-0.07,0.06,0.05,0.10,250
0.14,0.94,-0.07,0.00,0.02,0.09,249
0.14,0.94,-0.07,-0.02,-0.04,0.05,249
0.14,0.94,-0.07,-0.01,0.01,-0.02,249
0.14,0.94,-0.07,-0.01,0.02,-0.04,250
0.14,0.94,-0.07,-0.04,0.02,-0.09,249
0.14,0.94,-0.07,-0.04,0.04,-0.15,249
0.14,0.94,-0.07,-0.07,-0.04,-0.15,250
0.14,0.94,-0.07,-0.08,-0.09,-0.19,249
0.14,0.94,-0.07,-0.05,-0.08,-0.14,249
0.14,0.94,-0.07,-0.08,-0.02,-0.05,250
0.14,0.94,-0.07,-0.05,0.04,-0.03,249
0.14,0.94,-0.07,0.04,0.03,-0.02,249
0.14,0.94,-0.07,0.11,0.01,0.02,249
0.14,0.94,-0.07,0.11,0.03,0.10,249
0.14,0.94,-0.07,0.07,0.05,0.16,249
0.14,0.94,-0.07,0.04,0.04,0.16,249
0.14,0.94,-0.07,0.06,0.02,0.12,249
0.14,0.94,-0.07,0.06,0.01,0.03,249
0.14,0.94,-0.07,0.03,0.03,0.02,249
0.14,0.94,-0.07,-0.01,0.02,0.06,250
0.14,0.94,-0.07,-0.04,0.01,0.03,249
0.14,0.94,-0.07,-0.04,-0.01,-0.09,249
0.14,0.94,-0.07,-0.08,-0.04,-0.21,249
0.14,0.94,-0.07,-0.13,-0.03,-0.24,249
0.14,0.94,-0.07,-0.12,0.01,-0.17,249
0.14,0.94,-0.07,-0.10,0.01,-0.11,249
0.14,0.94,-0.07,-0.07,-0.06,-0.10,249
0.14,0.94,-0.07,-0.04,-0.03,-0.08,249
0.14,0.94,-0.07,0.00,0.01,-0.05,250
0.14,0.94,-0.07,0.04,-0.03,0.01,250
0.14,0.94,-0.07,0.07,-0.01,0.13,249
0.14,0.94,-0.07,0.08,0.02,0.19,249
0.14,0.94,-0.07,0.09,0.06,0.20,249
0.14,0.94,-0.07,0.07,0.09,0.17,249
0.14,0.94,-0.07,0.04,0.06,0.13,249
0.14,0.94,-0.07,0.01,0.04,0.12,249
0.14,0.94,-0.07,-0.05,0.01,0.09,249
0.14,0.94,-0.07,-0.05,-0.02,-0.00,249
0.14,0.94,-0.07,-0.02,-0.03,-0.10,249
0.14,0.94,-0.07,-0.01,-0.04,-0.12,249
0.14,0.94,-0.07,-0.03,-0.04,-0.10,249
0.14,0.94,-0.07,-0.04,-0.03,-0.05,249
0.14,0.94,-0.07,-0.05,-0.02,-0.02,249
0.14,0.94,-0.07,-0.05,-0.01,-0.09,249
0.14,0.94,-0.07,-0.00,-0.01,-0.11,249
0.14,0.94,-0.07,0.01,0.03,-0.05,249
0.14,0.94,-0.07,0.04,0.05,0.03,250
0.14,0.94,-0.07,0.06,0.03,0.11,250
0.14,0.94,-0.07,0.07,0.03,0.10,250
0.14,0.94,-0.07,0.05,0.04,0.08,249
0.14,0.94,-0.07,0.05,0.02,0.08,249
0.14,0.94,-0.07,0.07,0.04,0.08,250
0.14,0.94,-0.07,-0.00,0.03,0.10,249
0.14,0.94,-0.07,-0.02,-0.01,0.06,250
0.14,0.94,-0.07,0.00,-0.03,0.03,249
0.14,0.94,-0.07,0.01,-0.01,-0.05,250
0.14,0.94,-0.07,0.01,-0.03,-0.07,250
0.14,0.94,-0.07,-0.05,-0.02,-0.06,249
0.14,0.94,-0.07,-0.05,0.02,-0.03,249
0.14,0.94,-0.07,-0.06,-0.05,-0.03,249
0.14,0.94,-0.07,-0.08,-0.03,-0.08,249
0.14,0.94,-0.07,-0.05,0.00,-0.10,249
0.14,0.94,-0.07,-0.05,-0.04,-0.09,249
0.14,0.94,-0.07,-0.08,-0.00,-0.06,249
0.14,0.94,-0.07,-0.03,-0.00,-0.03,249
0.14,0.94,-0.07,0.02,-0.00,-0.02,249
0.14,0.94,-0.07,0.03,0.05,0.04,249
0.14,0.94,-0.07,0.04,0.03,0.09,249
0.14,0.94,-0.07,0.05,-0.00,0.08,249
0.14,0.94,-0.07,0.06,0.01,0.08,249
0.14,0.94,-0.07,0.08,0.04,0.03,249
0.14,0.94,-0.07,0.13,0.05,0.05,249
0.14,0.94,-0.07,0.10,0.05,0.10,249
0.14,0.94,-0.07,-0.02,0.03,0.07,249
0.14,0.94,-0.07,-0.04,-0.01,0.06,250
0.14,0.94,-0.07,0.01,-0.03,0.02,249
0.14,0.94,-0.07,-0.06,-0.01,-0.03,249
0.14,0.94,-0.07,-0.13,-0.00,-0.08,250
0.14,0.94,-0.07,-0.12,-0.04,-0.10,249
0.14,0.94,-0.07,-0.07,-0.07,-0.13,249
0.14,0.94,-0.07,-0.03,-0.06,-0.18,249
0.14,0.94,-0.07,-0.03,-0.06,-0.15,249
0.14,0.94,-0.07,-0.05,-0.05,-0.10,250
0.14,0.94,-0.07,-0.02,-0.02,0.00,249
0.14,0.94,-0.07,0.04,0.02,0.07,249
0.14,0.94,-0.07,0.06,0.04,0.06,250
0.14,0.94,-0.07,0.06,0.06,0.04,249
0.14,0.94,-0.07,0.06,0.09,0.10,250
0.14,0.94,-0.07,0.06,0.06,0.17,249
0.14,0.94,-0.07,0.03,0.03,0.20,249
0.14,0.94,-0.07,0.06,0.02,0.12,249
0.14,0.94,-0.07,0.06,0.01,-0.00,249
0.14,0.94,-0.07,0.01,0.01,-0.00,249
0.14,0.94,-0.07,0.00,0.00,0.00,249
0.14,0.94,-0.07,-0.04,-0.04,-0.03,249
0.14,0.94,-0.07,-0.05,-0.06,-0.13,249
0.14,0.94,-0.07,-0.04,-0.06,-0.19,249
0.14,0.94,-0.07,-0.04,-0.04,-0.21,249
0.14,0.94,-0.07,-0.06,-0.06,-0.18,249
0.14,0.94,-0.07,-0.08,-0.02,-0.10,249
0.14,0.94,-0.07,-0.04,0.04,-0.01,249
0.14,0.94,-0.07,0.01,0.01,-0.02,249
0.14,0.94,-0.07,0.04,0.02,0.00,249
0.14,0.94,-0.07,0.02,0.05,0.11,249
0.14,0.94,-0.07,0.02,0.01,0.13,249
0.14,0.94,-0.07,0.04,-0.00,0.11,249
0.14,0.94,-0.07,0.05,0.01,0.11,250
0.14,0.94,-0.07,0.04,0.01,0.14,249
0.14,0.94,-0.07,0.04,0.01,0.11,249
0.14,0.94,-0.07,0.06,0.02,0.04,249
0.14,0.94,-0.07,0.02,0.00,0.05,249
0.14,0.94,-0.07,-0.05,-0.03,-0.00,249
0.14,0.94,-0.07,-0.09,-0.02,-0.06,249
0.14,0.94,-0.07,-0.06,0.02,-0.05,250
0.14,0.94,-0.07,-0.05,0.01,-0.05,249
0.14,0.94,-0.07,-0.07,-0.03,-0.06,249
0.14,0.94,-0.07,-0.04,-0.03,-0.08,250
0.14,0.94,-0.07,-0.04,-0.04,-0.11,249
0.14,0.94,-0.07,-0.01,-0.07,-0.06,249
0.14,0.94,-0.07,0.02,-0.04,0.02,249
0.14,0.94,-0.07,0.04,0.01,0.03,249
0.14,0.94,-0.07,0.07,0.01,0.06,249
0.14,0.94,-0.07,0.10,0.02,0.06,249
0.14,0.94,-0.07,0.09,0.03,0.13,249
0.14,0.94,-0.07,0.07,0.07,0.19,250
0.14,0.94,-0.07,0.05,0.06,0.12,249
0.14,0.94,-0.07,0.06,0.02,0.05,250
0.14,0.94,-0.07,0.02,0.00,0.03,250
0.14,0.94,-0.07,-0.03,0.00,-0.01,249
0.14,0.94,-0.07,-0.07,0.00,-0.03,249
0.14,0.94,-0.07,-0.09,-0.03,-0.04,249
0.14,0.94,-0.07,-0.05,-0.06,-0.08,249
0.14,0.94,-0.07,-0.05,-0.00,-0.10,249
0.14,0.94,-0.07,-0.07,0.03,-0.08,249
0.14,0.94,-0.07,-0.08,-0.02,-0.06,249
0.14,0.94,-0.07,-0.05,-0.02,-0.07,249
0.14,0.94,-0.07,-0.04,-0.01,-0.09,250
0.14,0.94,-0.07,-0.07,-0.05,-0.10,249
0.14,0.94,-0.07,-0.02,-0.03,-0.05,249
0.14,0.94,-0.07,0.05,0.04,0.05,249
0.14,0.94,-0.07,0.06,0.04,0.12,249
0.14,0.94,-0.07,0.05,0.02,0.13,250
0.14,0.94,-0.07,0.05,0.00,0.09,249
0.14,0.94,-0.07,0.09,0.02,0.06,249
0.14,0.94,-0.07,0.08,0.07,0.06,249
0.14,0.94,-0.07,0.08,0.05,0.13,249
0.14,0.94,-0.07,0.03,0.03,0.22,249
0.14,0.94,-0.07,0.01,0.05,0.14,249
0.14,0.94,-0.07,-0.01,0.01,-0.07,249
0.14,0.94,-0.07,-0.05,-0.04,-0.18,249
0.14,0.94,-0.07,-0.07,-0.06,-0.14,249
0.14,0.94,-0.07,-0.09,-0.04,-0.07,249
0.14,0.94,-0.07,-0.03,-0.01,-0.07,249
0.14,0.94,-0.07,-0.02,-0.00,-0.07,249
0.14,0.94,-0.07,-0.07,0.04,-0.05,250
0.14,0.94,-0.07,-0.05,0.04,-0.03,249
0.14,0.94,-0.07,-0.01,0.02,0.01,249
0.14,0.94,-0.07,0.00,-0.00,0.05,249
0.14,0.94,-0.07,0.07,-0.03,0.05,249
0.14,0.94,-0.07,0.12,0.01,0.06,249
0.14,0.94,-0.07,0.08,0.05,0.10,249
0.14,0.94,-0.07,0.02,0.08,0.15,249
0.14,0.94,-0.07,0.03,0.06,0.13,249
0.14,0.94,-0.07,0.07,0.01,0.06,249
0.14,0.94,-0.07,0.03,0.02,-0.00,250
0.14,0.94,-0.07,-0.02,0.00,-0.04,249
0.14,0.94,-0.07,-0.06,-0.01,-0.06,249
0.14,0.94,-0.07,-0.11,-0.04,-0.12,249
0.14,0.94,-0.07,-0.09,-0.04,-0.16,249
0.14,0.94,-0.07,-0.04,-0.00,-0.17,249
0.14,0.94,-0.07,-0.06,0.04,-0.12,250
0.14,0.94,-0.07,-0.05,0.02,-0.05,249
0.14,0.94,-0.07,-0.04,-0.04,-0.04,249
0.14,0.94,-0.07,-0.02,-0.05,-0.05,249
0.14,0.94,-0.07,-0.02,-0.07,-0.05,250
0.14,0.94,-0.07,-0.01,-0.07,-0.03,249
0.14,0.94,-0.07,0.04,0.01,0.03,250
0.14,0.94,-0.07,0.04,0.07,0.10,249
0.14,0.94,-0.07,0.05,0.09,0.14,249
0.14,0.94,-0.07,0.06,0.10,0.10,250
0.14,0.94,-0.07,0.05,0.05,0.05,249
0.14,0.94,-0.07,0.04,-0.02,0.05,249
0.14,0.94,-0.07,0.04,-0.01,0.06,249
0.14,0.94,-0.07,-0.01,0.02,0.06,249
0.14,0.94,-0.07,0.00,0.02,0.06,249
0.14,0.94,-0.07,0.03,0.01,0.04,249
0.14,0.94,-0.07,-0.01,-0.03,0.02,249
0.14,0.94,-0.07,-0.05,-0.04,-0.03,249
0.14,0.94,-0.07,-0.07,-0.03,-0.05,250
0.14,0.94,-0.07,-0.07,-0.04,-0.11,249
0.14,0.94,-0.07,-0.08,-0.04,-0.09,249
0.14,0.94,-0.07,-0.04,-0.01,-0.05,249
0.14,0.94,-0.07,0.02,0.04,-0.06,249
0.14,0.94,-0.07,0.02,0.06,-0.02,250
0.14,0.94,-0.07,-0.01,0.02,-0.02,249
0.14,0.94,-0.07,0.01,0.00,0.01,249
0.14,0.94,-0.07,0.03,0.01,0.08,249
0.14,0.94,-0.07,0.06,0.04,0.11,249
0.14,0.94,-0.07,0.07,0.06,0.13,249
0.14,0.94,-0.07,0.04,0.01,0.12,249
0.14,0.94,-0.07,0.05,-0.03,0.05,249
0.14,0.94,-0.07,0.03,0.02,0.03,249
0.14,0.94,-0.07,-0.01,0.01,0.06,249
0.14,0.94,-0.07,-0.01,0.00,0.05,249
0.14,0.94,-0.07,-0.05,0.00,-0.03,249
0.14,0.94,-0.07,-0.12,-0.08,-0.18,249
0.14,0.94,-0.07,-0.08,-0.07,-0.28,249
0.14,0.94,-0.07,-0.07,-0.01,-0.22,249
0.14,0.94,-0.07,-0.06,-0.02,-0.17,249
0.14,0.94,-0.07,-0.08,0.01,-0.10,249
0.14,0.94,-0.07,-0.04,0.04,0.01,249
0.14,0.94,-0.07,0.06,0.02,0.03,249
0.14,0.94,-0.07,0.08,0.03,0.04,249
0.14,0.94,-0.07,0.08,0.04,0.10,249
0.14,0.94,-0.07,0.07,0.04,0.17,249
0.14,0.94,-0.07,0.09,0.08,0.24,249
0.14,0.94,-0.07,0.11,0.04,0.20,249
0.14,0.94,-0.07,0.12,-0.02,0.11,250
0.14,0.94,-0.07,0.09,-0.04,0.09,249
0.14,0.94,-0.07,-0.01,-0.02,0.07,249
0.14,0.94,-0.07,-0.03,0.03,0.01,250
0.14,0.94,-0.07,0.01,-0.00,-0.04,249
0.14,0.94,-0.07,-0.03,-0.04,-0.05,249
0.14,0.94,-0.07,-0.09,-0.03,-0.08,249
0.14,0.94,-0.07,-0.13,-0.06,-0.14,249
0.14,0.94,-0.07,-0.12,-0.08,-0.17,249
0.14,0.94,-0.07,-0.05,-0.04,-0.14,250
0.14,0.94,-0.07,-0.02,0.01,-0.05,249
0.14,0.94,-0.07,-0.01,0.02,0.02,249
0.14,0.94,-0.07,0.04,0.03,0.08,249
0.14,0.94,-0.07,0.07,0.03,0.04,249
0.14,0.94,-0.07,0.05,0.01,-0.02,249
0.13,0.94,-0.07,0.05,-0.00,0.05,249
0.14,0.94,-0.07,0.04,0.04,0.10,249
0.14,0.94,-0.07,0.00,0.07,0.12,249
0.14,0.94,-0.07,0.03,0.05,0.12,249
0.14,0.94,-0.07,0.09,0.03,0.04,250
0.14,0.94,-0.07,0.08,0.01,-0.03,249
0.14,0.94,-0.07,-0.01,0.01,-0.01,250
0.14,0.94,-0.07,-0.05,0.02,0.02,249
0.14,0.94,-0.07,-0.03,0.01,0.04,249
0.14,0.94,-0.07,-0.06,-0.03,-0.02,249
0.14,0.94,-0.07,-0.07,-0.06,-0.07,249
0.14,0.94,-0.07,-0.05,-0.07,-0.08,249
0.14,0.94,-0.07,-0.06,-0.03,-0.06,250
0.14,0.94,-0.07,-0.06,-0.01,-0.05,249
0.14,0.94,-0.07,-0.03,-0.06,-0.10,249
0.14,0.94,-0.07,0.03,-0.04,-0.10,250
0.14,0.94,-0.07,0.05,0.04,0.01,249
0.14,0.94,-0.07,0.02,0.08,0.11,249
0.14,0.94,-0.07,-0.00,0.04,0.11,249
0.14,0.94,-0.07,0.01,0.02,0.06,249
0.14,0.94,-0.07,0.06,0.01,0.01,249
0.14,0.94,-0.07,0.10,-0.01,0.04,249
0.14,0.94,-0.07,0.08,0.01,0.15,250
0.14,0.94,-0.07,0.08,0.01,0.18,249
0.14,0.94,-0.07,0.06,-0.04,0.11,249
0.14,0.94,-0.07,0.03,-0.06,0.03,250
0.14,0.94,-0.07,0.00,-0.02,-0.10,249
0.14,0.94,-0.07,-0.01,-0.01,-0.12,249
0.14,0.94,-0.07,-0.08,-0.07,-0.05,249
0.14,0.94,-0.07,-0.13,-0.06,-0.12,250
0.14,0.94,-0.07,-0.09,-0.04,-0.19,249
0.14,0.94,-0.07,-0.06,-0.03,-0.20,249
0.14,0.94,-0.07,-0.06,0.01,-0.16,249
0.14,0.94,-0.07,-0.04,0.04,-0.01,249
0.14,0.94,-0.07,0.02,0.00,0.09,249
0.14,0.94,-0.07,0.01,-0.04,0.06,249
0.14,0.94,-0.07,0.00,-0.04,0.03,249
0.14,0.94,-0.07,0.06,-0.03,-0.00,249
0.14,0.94,-0.07,0.09,-0.01,0.09,249
0.14,0.94,-0.07,0.05,0.05,0.16,249
0.14,0.94,-0.07,0.08,0.12,0.16,249
0.14,0.94,-0.07,0.09,0.06,0.19,249
0.14,0.94,-0.07,0.03,0.07,0.09,249
0.14,0.94,-0.07,-0.03,0.09,0.04,249
0.14,0.94,-0.07,-0.05,0.04,0.02,249
0.14,0.94,-0.07,-0.07,0.01,-0.06,249
0.14,0.94,-0.07,-0.06,-0.05,-0.15,249
0.14,0.94,-0.07,-0.03,-0.06,-0.21,249
0.14,0.94,-0.07,-0.06,-0.07,-0.16,249
0.14,0.94,-0.07,-0.09,-0.05,-0.11,249
0.14,0.94,-0.07,-0.02,0.01,-0.05,249
0.14,0.94,-0.07,-0.03,0.01,-0.02,249
0.14,0.94,-0.07,-0.00,0.01,-0.01,249
0.14,0.94,-0.07,0.02,0.02,0.08,249
0.14,0.94,-0.07,0.04,0.04,0.16,249
0.14,0.94,-0.07,0.07,0.04,0.15,249
0.14,0.94,-0.07,0.05,0.04,0.12,249
0.14,0.94,-0.07,0.06,0.03,0.11,250
0.14,0.94,-0.07,0.05,0.02,0.09,249
0.14,0.94,-0.07,0.03,0.04,0.08,249
0.14,0.94,-0.07,0.02,0.04,0.04,249
0.14,0.94,-0.07,-0.03,0.00,-0.07,250
0.14,0.94,-0.07,-0.03,-0.04,-0.18,249
0.14,0.94,-0.07,-0.05,-0.05,-0.15,250
0.14,0.94,-0.07,-0.07,0.00,-0.05,249
0.14,0.94,-0.07,-0.09,-0.01,-0.05,249
0.14,0.94,-0.07,-0.06,-0.05,-0.04,249
0.14,0.94,-0.07,0.00,-0.05,-0.05,250
0.14,0.94,-0.07,-0.02,-0.05,-0.12,249
0.14,0.94,-0.07,0.02,0.02,-0.09,249
0.14,0.94,-0.07,0.04,0.07,0.00,249
0.14,0.94,-0.07,-0.01,0.04,0.06,250
0.14,0.94,-0.07,0.03,0.04,0.07,250
0.14,0.94,-0.07,0.07,0.05,0.05,249
0.14,0.94,-0.07,0.02,0.02,-0.00,249
0.14,0.94,-0.07,-0.00,0.01,0.03,249
0.14,0.94,-0.07,0.00,0.01,0.06,249
0.14,0.94,-0.07,0.02,0.01,0.01,250
0.14,0.94,-0.07,0.01,-0.01,0.01,249
0.14,0.94,-0.07,0.03,-0.02,0.06,249
0.14,0.94,-0.07,0.03,0.01,0.08,250
0.14,0.94,-0.07,-0.01,0.01,0.07,249
0.14,0.94,-0.07,-0.03,0.03,0.03,249
0.14,0.94,-0.07,-0.02,0.03,-0.05,249
0.14,0.94,-0.07,0.00,0.04,-0.08,249
0.14,0.94,-0.07,-0.02,0.03,-0.02,249
0.14,0.94,-0.07,-0.02,0.01,0.01,249
0.14,0.94,-0.07,-0.04,-0.04,-0.07,249
0.14,0.94,-0.07,-0.03,-0.05,-0.14,249
0.14,0.94,-0.07,0.00,-0.02,-0.08,249
0.14,0.94,-0.07,0.01,-0.01,0.00,249
0.14,0.94,-0.07,0.02,-0.00,0.04,249
0.14,0.94,-0.07,0.03,0.00,0.03,250
0.14,0.94,-0.07,0.03,-0.03,-0.00,250
0.14,0.94,-0.07,0.03,-0.04,-0.05,250
0.14,0.94,-0.07,0.02,-0.03,-0.00,249
0.14,0.94,-0.07,0.05,-0.01,0.07,249
0.14,0.94,-0.07,0.02,0.03,0.07,249
0.14,0.94,-0.07,-0.05,0.02,0.05,249
0.14,0.94,-0.07,-0.04,-0.04,-0.02,250
0.14,0.94,-0.07,-0.06,-0.08,-0.10,250
0.14,0.94,-0.07,-0.07,-0.04,-0.10,249
0.14,0.94,-0.07,-0.05,-0.02,-0.09,249
0.14,0.94,-0.07,-0.03,-0.01,-0.11,249
0.14,0.94,-0.07,-0.01,0.00,-0.07,250
0.14,0.94,-0.07,-0.00,0.00,0.01,249
0.14,0.94,-0.07,0.01,0.05,0.09,249
0.14,0.94,-0.07,0.02,0.00,0.09,249
0.14,0.94,-0.07,0.02,-0.04,0.05,249
0.14,0.94,-0.07,0.04,0.01,0.08,249
0.14,0.94,-0.07,0.11,0.00,0.08,249
0.14,0.94,-0.07,0.08,-0.03,0.13,249
0.14,0.94,-0.07,0.03,0.01,0.14,249
0.14,0.94,-0.07,0.03,0.01,0.05,250
0.14,0.94,-0.07,0.03,0.02,-0.05,249
0.14,0.94,-0.07,0.02,0.05,-0.04,249
0.14,0.94,-0.07,0.00,0.02,-0.00,249
0.14,0.94,-0.07,-0.04,-0.01,-0.01,249
0.14,0.94,-0.07,-0.08,-0.04,-0.05,249
0.14,0.94,-0.07,-0.06,-0.04,-0.09,249
0.14,0.94,-0.07,-0.09,-0.05,-0.12,249
0.14,0.94,-0.07,-0.04,-0.03,-0.08,249
0.14,0.94,-0.07,0.04,0.01,0.01,249
0.14,0.94,-0.07,0.01,0.01,0.05,250
0.14,0.94,-0.07,-0.01,0.03,0.07,249
0.14,0.94,-0.07,0.04,0.08,0.05,249
0.14,0.94,-0.07,0.05,0.07,0.01,250
0.14,0.94,-0.07,0.03,0.00,0.04,250
0.14,0.94,-0.07,0.05,-0.04,0.06,249
0.14,0.94,-0.07,-0.00,-0.01,0.02,249
0.14,0.94,-0.07,-0.04,-0.02,-0.04,249
0.14,0.94,-0.07,0.02,-0.03,-0.07,249
0.14,0.94,-0.07,-0.01,-0.03,-0.03,249
0.14,0.94,-0.07,-0.06,-0.02,0.01,250
0.14,0.94,-0.07,-0.02,0.05,0.03,249
0.14,0.94,-0.07,0.03,0.07,0.02,249
0.14,0.94,-0.07,0.05,0.00,-0.01,249
0.14,0.94,-0.07,0.00,-0.04,-0.02,249
0.14,0.94,-0.07,-0.02,-0.00,0.01,249
0.14,0.94,-0.07,0.00,-0.04,0.04,249
0.14,0.94,-0.07,-0.01,-0.07,0.04,249
0.14,0.94,-0.07,0.02,0.00,0.04,249
0.14,0.94,-0.07,0.08,0.01,0.02,249
0.14,0.94,-0.07,0.02,-0.03,0.00,249
0.14,0.94,-0.07,-0.04,0.01,0.03,249
0.14,0.94,-0.07,0.06,0.07,0.06,249
0.14,0.94,-0.07,0.09,0.02,0.07,249
0.14,0.94,-0.07,0.02,-0.03,0.02,249
0.14,0.94,-0.07,0.07,-0.01,-0.01,249
0.14,0.94,-0.07,0.06,0.04,0.05,250
0.14,0.94,-0.07,-0.02,0.05,0.05,249
0.14,0.94,-0.07,0.04,0.01,-0.02,249
0.14,0.94,-0.07,-0.01,-0.06,-0.04,249
0.14,0.94,-0.07,-0.06,-0.06,-0.04,249
0.14,0.94,-0.07,-0.01,-0.02,-0.04,249
0.14,0.94,-0.07,-0.08,-0.05,-0.06,249
0.14,0.94,-0.07,-0.09,-0.03,-0.10,249
0.14,0.94,-0.07,-0.00,-0.00,-0.10,249
0.14,0.94,-0.07,-0.01,-0.02,-0.08,249
0.14,0.94,-0.07,-0.04,-0.04,-0.08,249
0.14,0.94,-0.07,-0.01,-0.02,-0.08,249
0.14,0.94,-0.07,0.00,-0.01,-0.01,250
0.14,0.94,-0.07,0.05,-0.01,0.05,249
0.14,0.94,-0.07,0.09,0.05,0.06,249
0.14,0.94,-0.07,0.05,0.02,0.05,249
0.14,0.94,-0.07,0.03,-0.06,0.03,249
0.14,0.94,-0.07,0.08,-0.06,0.03,249
0.14,0.94,-0.07,0.05,0.04,0.08,249
0.14,0.94,-0.07,0.02,0.09,0.10,249
0.14,0.94,-0.07,0.00,0.04,0.08,249
0.14,0.94,-0.07,-0.02,0.01,0.01,249
0.14,0.94,-0.07,-0.07,-0.03,-0.10,249
0.14,0.94,-0.07,-0.10,-0.04,-0.11,249
0.14,0.94,-0.07,-0.07,-0.03,-0.09,249
0.14,0.94,-0.07,-0.04,-0.03,-0.06,249
0.14,0.94,-0.07,-0.05,-0.01,-0.03,249
0.14,0.94,-0.07,-0.04,0.00,-0.05,249
0.14,0.94,-0.07,0.01,-0.06,-0.15,250
0.14,0.94,-0.07,-0.03,-0.04,-0.15,249
0.14,0.94,-0.07,-0.01,0.07,0.03,249
0.14,0.94,-0.07,0.05,0.04,0.13,249
0.14,0.94,-0.07,0.05,0.01,0.09,249
0.14,0.94,-0.07,0.05,0.05,0.05,249
0.14,0.94,-0.07,0.08,0.01,0.01,249
0.14,0.94,-0.07,0.07,-0.02,0.04,249
0.14,0.94,-0.07,0.01,0.01,0.12,249
0.14,0.94,-0.07,0.02,0.04,0.13,249
0.14,0.94,-0.07,0.05,0.01,0.09,249
0.14,0.94,-0.07,0.01,-0.03,-0.00,249
0.14,0.94,-0.07,0.03,0.01,-0.04,249
0.14,0.94,-0.07,0.02,0.01,-0.02,249
0.14,0.94,-0.07,-0.07,-0.05,-0.00,249
0.14,0.94,-0.07,-0.08,-0.05,-0.05,249
0.14,0.94,-0.07,-0.07,-0.06,-0.12,250
0.14,0.94,-0.07,-0.03,-0.07,-0.14,249
0.14,0.94,-0.07,0.02,-0.06,-0.11,249
0.14,0.94,-0.07,-0.01,-0.02,-0.00,249
0.14,0.94,-0.07,-0.01,0.02,0.01,249
0.14,0.94,-0.07,-0.02,0.00,-0.00,249
0.14,0.94,-0.07,-0.00,-0.02,0.05,249
0.14,0.94,-0.07,0.07,-0.03,0.09,249
0.14,0.94,-0.07,0.07,-0.05,0.11,249
0.14,0.94,-0.07,0.04,-0.02,0.12,249
0.14,0.94,-0.07,0.03,0.01,0.10,249
0.14,0.94,-0.07,0.03,0.02,0.07,249
0.14,0.94,-0.07,0.03,0.02,0.10,249
0.14,0.94,-0.07,0.04,0.07,0.08,250
0.14,0.94,-0.07,0.02,0.03,0.06,249
0.14,0.94,-0.07,-0.02,-0.05,0.01,249
0.14,0.94,-0.07,-0.01,-0.02,-0.05,249
0.14,0.94,-0.07,-0.05,-0.02,-0.08,249
0.14,0.94,-0.07,-0.08,-0.02,-0.12,249
0.14,0.94,-0.07,-0.09,-0.02,-0.12,250
0.14,0.94,-0.07,-0.06,-0.02,-0.07,249
0.14,0.94,-0.07,-0.02,-0.04,-0.05,249
0.14,0.94,-0.07,-0.00,-0.02,-0.07,249
0.14,0.94,-0.07,-0.02,0.02,-0.02,250
0.14,0.94,-0.07,-0.02,0.01,0.03,249
0.14,0.94,-0.07,0.03,0.02,0.07,250
0.14,0.94,-0.07,0.03,0.01,0.04,249
0.14,0.94,-0.07,0.05,-0.01,-0.01,249
0.14,0.94,-0.07,0.06,0.02,0.03,249
0.14,0.94,-0.07,0.05,0.04,0.05,249
0.14,0.94,-0.07,0.02,0.01,0.01,249
0.14,0.94,-0.07,0.02,0.01,0.02,249
0.14,0.94,-0.07,0.06,0.03,0.06,249
0.14,0.94,-0.07,0.00,0.01,0.04,249
0.14,0.94,-0.07,-0.05,-0.01,-0.02,249
0.14,0.94,-0.07,-0.05,-0.02,-0.13,249
0.14,0.94,-0.07,-0.03,-0.03,-0.14,249
0.14,0.94,-0.07,-0.02,0.01,-0.11,249
0.14,0.94,-0.07,-0.05,0.01,-0.05,249
0.14,0.94,-0.07,-0.04,0.01,0.05,249
0.14,0.94,-0.07,0.01,-0.02,0.00,249
0.14,0.94,-0.07,0.04,-0.03,-0.02,249
0.14,0.94,-0.07,0.08,0.01,0.00,249
0.14,0.94,-0.07,0.07,0.02,0.01,249
0.14,0.94,-0.07,0.03,0.01,0.10,249
0.14,0.94,-0.07,0.03,0.05,0.19,249
0.14,0.94,-0.07,0.04,0.02,0.10,249
0.14,0.94,-0.07,0.02,-0.04,0.00,250
0.14,0.94,-0.07,0.00,-0.03,-0.00,249
0.14,0.94,-0.07,0.03,-0.02,0.03,250
0.14,0.94,-0.07,-0.01,-0.01,0.05,249
0.14,0.94,-0.07,-0.04,-0.02,-0.02,249
0.14,0.94,-0.07,-0.02,-0.02,-0.10,249
0.14,0.94,-0.07,-0.02,-0.01,-0.11,249
0.14,0.94,-0.07,-0.05,0.00,-0.09,249
0.14,0.94,-0.07,-0.05,0.00,-0.06,249
0.14,0.94,-0.07,-0.03,-0.02,-0.02,250
0.14,0.94,-0.07,-0.04,-0.02,-0.03,250
0.14,0.94,-0.07,-0.03,-0.04,-0.05,250
0.14,0.94,-0.07,0.02,-0.03,-0.00,250
0.14,0.94,-0.07,0.01,-0.02,0.05,249
0.14,0.94,-0.07,0.02,-0.01,0.07,249
0.14,0.94,-0.07,0.06,0.03,0.09,249
0.14,0.94,-0.07,0.03,0.07,0.11,249
0.14,0.94,-0.07,0.05,0.07,0.13,249
0.14,0.94,-0.07,0.06,0.03,0.09,249
0.14,0.94,-0.07,0.01,-0.02,0.03,249
0.14,0.94,-0.07,-0.04,-0.05,-0.04,249
0.14,0.94,-0.07,-0.04,-0.01,-0.08,249
0.14,0.94,-0.07,-0.06,0.02,-0.10,249
0.14,0.94,-0.07,-0.06,-0.00,-0.06,249
0.14,0.94,-0.07,-0.03,0.03,0.01,249
0.14,0.94,-0.07,-0.05,0.00,0.01,250
0.14,0.94,-0.07,-0.03,-0.06,-0.05,250
0.14,0.94,-0.07,-0.04,-0.05,-0.04,249
0.14,0.94,-0.07,-0.06,-0.03,-0.01,249
0.14,0.94,-0.07,-0.01,-0.04,-0.02,249
0.14,0.94,-0.07,0.03,-0.02,-0.00,249
0.14,0.94,-0.07,0.04,0.02,0.01,249
0.14,0.94,-0.07,0.06,0.05,0.06,249
0.14,0.94,-0.07,0.03,0.05,0.14,249
0.14,0.94,-0.07,0.02,0.06,0.11,249
0.14,0.94,-0.07,0.02,0.02,0.05,249
0.14,0.94,-0.07,0.01,-0.05,-0.04,249
0.14,0.94,-0.07,0.02,-0.05,-0.06,249
0.14,0.94,-0.07,-0.01,-0.03,-0.08,249
0.14,0.94,-0.07,-0.03,-0.03,-0.07,249
0.14,0.94,-0.07,-0.04,0.00,-0.04,249
0.14,0.94,-0.07,-0.03,0.04,-0.06,249
0.14,0.94,-0.07,0.00,0.03,-0.05,249
0.14,0.94,-0.07,-0.04,0.02,-0.04,249
0.14,0.94,-0.07,-0.04,0.03,-0.04,250
0.14,0.94,-0.07,-0.03,-0.03,-0.09,249
0.14,0.94,-0.07,-0.04,-0.04,-0.11,249
0.14,0.94,-0.07,-0.02,-0.01,-0.11,249
0.14,0.94,-0.07,-0.02,-0.01,-0.03,249
0.14,0.94,-0.07,0.02,0.02,0.09,249
0.14,0.94,-0.07,0.06,0.04,0.09,249
0.14,0.94,-0.07,0.06,0.05,0.03,249
0.14,0.94,-0.07,0.03,0.04,-0.03,250
0.14,0.94,-0.07,0.02,0.01,-0.02,249
0.14,0.94,-0.07,0.04,0.04,0.07,249
0.14,0.94,-0.07,0.06,0.05,0.12,249
0.14,0.94,-0.07,0.04,0.01,0.11,249
0.14,0.94,-0.07,0.00,-0.01,0.00,249
0.14,0.94,-0.07,-0.02,-0.06,-0.10,249
0.14,0.94,-0.07,-0.04,-0.06,-0.06,249
0.14,0.94,-0.07,-0.06,-0.02,0.00,249
0.14,0.94,-0.07,-0.04,0.01,-0.03,249
0.14,0.94,-0.07,-0.02,0.03,-0.06,249
0.14,0.94,-0.07,-0.01,-0.02,-0.07,249
0.14,0.94,-0.07,-0.04,-0.04,-0.11,250
0.14,0.94,-0.07,-0.06,-0.01,-0.03,249
0.14,0.94,-0.07,-0.04,0.03,0.09,249
0.14,0.94,-0.07,-0.03,0.05,0.06,249
0.14,0.94,-0.07,0.02,0.01,0.01,249
0.14,0.94,-0.07,0.02,-0.02,-0.02,249
0.14,0.94,-0.07,-0.00,0.00,-0.00,249
0.14,0.94,-0.07,0.02,0.01,0.06,249
0.14,0.94,-0.07,0.08,0.01,0.13,249
0.14,0.94,-0.07,0.10,0.01,0.14,249
0.14,0.94,-0.07,0.03,0.01,0.07,249
0.14,0.94,-0.07,0.02,-0.00,0.05,249
0.14,0.94,-0.07,-0.01,-0.03,0.01,249
0.14,0.94,-0.07,-0.05,-0.02,-0.05,250
0.14,0.94,-0.07,-0.05,-0.04,-0.05,249
0.14,0.94,-0.07,-0.01,-0.03,-0.05,249
0.14,0.94,-0.07,-0.01,-0.02,-0.05,249
0.14,0.94,-0.07,-0.04,-0.03,-0.04,249
0.14,0.94,-0.07,-0.02,-0.01,-0.05,249
0.14,0.94,-0.07,-0.02,-0.02,-0.10,249
0.14,0.94,-0.07,-0.05,-0.02,-0.10,249
0.14,0.94,-0.07,0.02,-0.01,-0.06,249
0.14,0.94,-0.07,0.06,-0.01,-0.05,249
0.14,0.94,-0.07,0.06,-0.01,0.03,249
0.14,0.94,-0.07,0.06,-0.00,0.12,249
0.14,0.94,-0.07,0.03,0.02,0.05,249
0.14,0.94,-0.07,-0.01,0.03,0.04,249
0.14,0.94,-0.07,-0.01,0.02,0.06,250
0.14,0.94,-0.07,-0.01,-0.01,-0.01,249
0.14,0.94,-0.07,-0.04,-0.03,-0.04,249
0.14,0.94,-0.07,-0.06,-0.03,-0.06,249
0.14,0.94,-0.07,-0.08,-0.01,-0.07,249
0.14,0.94,-0.07,-0.06,-0.01,-0.07,249
0.14,0.94,-0.07,-0.03,0.01,-0.07,249
0.14,0.94,-0.07,-0.04,0.04,-0.04,249
0.14,0.94,-0.07,-0.03,-0.00,-0.06,249
0.14,0.94,-0.07,0.02,-0.03,-0.03,249
0.14,0.94,-0.07,-0.00,-0.01,-0.02,249
0.14,0.94,-0.07,0.03,-0.02,-0.01,249
0.14,0.94,-0.07,0.06,0.01,-0.00,249
0.14,0.94,-0.07,0.03,0.04,-0.01,249
0.14,0.94,-0.07,0.05,0.06,0.05,249
0.14,0.94,-0.07,0.08,0.09,0.08,249
0.14,0.94,-0.07,0.05,0.04,0.07,249
0.14,0.94,-0.07,0.03,0.03,0.05,249
0.14,0.94,-0.07,0.05,-0.00,0.04,249
0.14,0.94,-0.07,0.00,-0.06,0.01,250
0.14,0.94,-0.07,-0.05,-0.01,-0.03,249
0.14,0.94,-0.07,-0.05,0.03,0.00,249
0.14,0.94,-0.07,-0.03,-0.02,-0.03,249
0.14,0.94,-0.07,-0.04,-0.02,-0.09,249
0.14,0.94,-0.07,-0.05,-0.00,-0.09,249
0.14,0.94,-0.07,-0.05,-0.05,-0.10,250
0.14,0.94,-0.07,-0.05,-0.07,-0.09,249
0.14,0.94,-0.07,-0.03,0.02,-0.05,249
0.14,0.94,-0.07,-0.01,0.06,-0.02,249
0.14,0.94,-0.07,0.00,0.01,-0.04,249
0.14,0.94,-0.07,0.03,0.01,-0.10,249
0.14,0.94,-0.07,0.06,0.04,-0.03,250
0.14,0.94,-0.07,0.06,0.02,0.10,250
0.14,0.94,-0.07,0.05,0.02,0.15,249
0.14,0.94,-0.07,0.05,0.03,0.14,249
0.14,0.94,-0.07,0.03,-0.01,0.03,249
0.14,0.94,-0.07,0.01,-0.05,-0.03,249
0.14,0.94,-0.07,0.01,-0.01,0.02,249
0.14,0.94,-0.07,0.00,0.03,0.02,249
0.14,0.94,-0.07,-0.02,0.03,-0.01,249
0.14,0.94,-0.07,-0.04,0.03,-0.04,250
0.14,0.94,-0.07,-0.05,0.02,-0.07,249
0.14,0.94,-0.07,-0.07,-0.01,-0.06,249
0.14,0.94,-0.07,-0.07,-0.03,-0.02,249
0.14,0.94,-0.07,-0.04,-0.02,-0.07,249
0.14,0.94,-0.07,-0.04,-0.02,-0.09,249
0.14,0.94,-0.07,-0.07,-0.01,-0.01,249
0.14,0.94,-0.07,-0.05,-0.01,0.04,249
0.14,0.94,-0.07,-0.02,-0.04,0.05,250
0.14,0.94,-0.07,0.00,-0.02,0.04,249
0.14,0.94,-0.07,0.01,0.07,0.06,249
0.14,0.94,-0.07,0.00,0.09,0.11,249
0.14,0.94,-0.07,0.03,0.04,0.09,249
0.14,0.94,-0.07,0.04,0.02,0.07,250
0.14,0.94,-0.07,0.05,-0.02,0.03,249
0.14,0.94,-0.07,0.06,-0.02,-0.03,250
0.14,0.94,-0.07,0.02,-0.02,-0.00,249
0.14,0.94,-0.07,-0.01,0.02,0.05,249
0.14,0.94,-0.07,-0.02,0.04,0.07,249
0.14,0.94,-0.07,-0.02,0.01,0.05,249
0.14,0.94,-0.07,0.01,-0.03,-0.08,249
0.14,0.94,-0.07,-0.01,-0.07,-0.11,249
0.14,0.94,-0.07,-0.03,-0.05,-0.07,249
0.14,0.94,-0.07,-0.05,0.00,-0.02,249
0.14,0.94,-0.07,-0.06,0.02,-0.00,249
0.14,0.94,-0.07,-0.02,0.02,-0.07,249
0.14,0.94,-0.07,0.05,0.02,-0.05,249
0.14,0.94,-0.07,0.06,0.02,0.01,249
0.14,0.94,-0.07,0.00,0.02,0.02,250
0.14,0.94,-0.07,-0.01,0.03,0.02,249
0.14,0.94,-0.07,0.02,0.02,-0.01,249
0.14,0.94,-0.07,0.06,-0.03,-0.05,249
0.14,0.94,-0.07,0.07,-0.02,0.02,249
0.14,0.94,-0.07,0.08,0.03,0.10,249
0.14,0.94,-0.07,0.08,0.06,0.14,249
0.14,0.94,-0.07,0.07,0.08,0.19,249
0.14,0.94,-0.07,0.06,0.03,0.14,249
0.14,0.94,-0.07,0.02,0.04,0.08,249
0.14,0.94,-0.07,-0.02,0.03,0.08,249
0.14,0.94,-0.07,-0.02,-0.02,0.03,249
0.14,0.94,-0.07,-0.03,-0.01,-0.05,249
0.14,0.94,-0.07,-0.05,-0.01,-0.13,249
0.14,0.94,-0.07,-0.05,-0.00,-0.15,249
0.14,0.94,-0.07,-0.06,0.04,-0.10,249
0.14,0.94,-0.07,-0.07,0.02,-0.04,249
0.14,0.94,-0.07,-0.07,-0.03,-0.07,249
0.14,0.94,-0.07,-0.02,-0.06,-0.11,249
0.14,0.94,-0.07,-0.01,-0.04,-0.13,249
0.14,0.94,-0.07,-0.03,0.01,-0.07,250
0.14,0.94,-0.07,0.03,0.04,0.03,249
0.14,0.94,-0.07,0.08,0.02,0.12,249
0.14,0.94,-0.07,0.06,0.01,0.16,249
0.14,0.94,-0.07,0.08,0.06,0.11,249
0.14,0.94,-0.07,0.05,0.05,0.05,249
0.14,0.94,-0.07,-0.03,0.00,0.02,249
0.14,0.94,-0.07,-0.03,-0.04,-0.06,249
0.14,0.94,-0.07,-0.05,-0.05,-0.12,249
0.14,0.94,-0.07,-0.07,-0.06,-0.15,250
0.14,0.94,-0.07,-0.04,-0.01,-0.14,249
0.14,0.94,-0.07,-0.01,0.01,-0.10,249
0.14,0.94,-0.07,-0.01,0.01,-0.06,249
0.14,0.94,-0.07,-0.01,0.03,0.01,249
0.14,0.94,-0.07,0.03,0.03,0.06,249
0.14,0.94,-0.07,0.05,0.01,0.08,249
0.14,0.94,-0.07,0.06,-0.00,0.10,249
0.14,0.94,-0.07,0.07,-0.01,0.14,249
0.14,0.94,-0.07,0.08,-0.00,0.14,249
0.14,0.94,-0.07,0.09,0.02,0.11,249
0.14,0.94,-0.07,0.07,0.05,0.13,249
0.14,0.94,-0.07,0.06,0.08,0.12,249
0.14,0.94,-0.07,0.03,0.04,0.01,249
0.14,0.94,-0.07,-0.01,-0.01,-0.11,249
0.14,0.94,-0.07,-0.04,-0.03,-0.14,250
0.14,0.94,-0.07,-0.06,-0.05,-0.18,249
0.14,0.94,-0.07,-0.06,-0.06,-0.19,249
0.14,0.94,-0.07,-0.10,-0.04,-0.11,250
0.14,0.94,-0.07,-0.10,-0.03,-0.08,249
0.14,0.94,-0.07,-0.04,-0.04,-0.11,249
0.14,0.94,-0.07,-0.01,-0.01,-0.11,249
0.14,0.94,-0.07,0.04,0.04,-0.03,249
0.14,0.94,-0.07,0.05,0.06,0.07,250
0.14,0.94,-0.07,0.07,0.01,0.12,249
0.14,0.94,-0.07,0.09,-0.02,0.05,249
0.14,0.94,-0.07,0.06,0.00,0.04,249
0.14,0.94,-0.07,0.07,0.01,0.12,249
0.14,0.94,-0.07,0.07,0.05,0.15,250
0.14,0.94,-0.07,0.06,0.08,0.16,249
0.14,0.94,-0.07,0.08,0.01,0.10,249
0.14,0.94,-0.07,0.06,-0.02,-0.03,249
0.14,0.94,-0.07,0.06,-0.02,-0.10,249
0.14,0.94,-0.07,0.05,-0.01,-0.02,249
0.14,0.94,-0.07,-0.03,0.02,0.06,249
0.14,0.94,-0.07,-0.06,0.03,0.02,249
0.14,0.94,-0.07,-0.08,0.01,-0.03,249
0.14,0.94,-0.07,-0.05,0.01,-0.06,249
0.14,0.94,-0.07,-0.05,-0.02,-0.07,249
0.14,0.94,-0.07,-0.08,-0.05,-0.08,249
0.14,0.94,-0.07,-0.10,-0.04,-0.11,249
0.14,0.94,-0.07,-0.05,-0.03,-0.10,249
0.14,0.94,-0.07,-0.02,0.01,-0.07,249
0.14,0.94,-0.07,0.02,0.02,-0.02,249
0.14,0.94,-0.07,0.03,0.05,0.06,249
0.14,0.94,-0.07,0.03,0.10,0.14,249
0.14,0.94,-0.07,0.02,0.07,0.09,249
0.14,0.94,-0.07,-0.03,0.04,0.03,249
0.14,0.94,-0.07,0.02,0.00,-0.01,249
0.14,0.94,-0.07,0.01,-0.01,0.05,249
0.14,0.94,-0.07,-0.02,0.02,0.11,249
0.14,0.94,-0.07,0.01,0.01,0.11,249
0.14,0.94,-0.07,0.05,-0.03,0.05,249
0.14,0.94,-0.07,0.01,-0.03,-0.03,249
0.14,0.94,-0.07,0.03,0.01,-0.06,249
0.14,0.94,-0.07,0.01,-0.02,-0.05,249
0.14,0.94,-0.07,-0.08,-0.06,-0.04,249
0.14,0.94,-0.07,-0.05,-0.01,-0.05,250
0.14,0.94,-0.07,-0.03,0.01,-0.07,249
0.14,0.94,-0.07,-0.01,-0.02,-0.11,249
0.14,0.94,-0.07,-0.03,-0.05,-0.13,249
0.14,0.94,-0.07,0.00,-0.05,-0.08,249
0.14,0.94,-0.07,0.01,-0.03,-0.04,249
0.14,0.94,-0.07,0.01,-0.00,0.00,249
0.14,0.94,-0.07,0.06,0.05,0.04,249
0.14,0.94,-0.07,-0.01,0.08,0.05,249
0.14,0.94,-0.07,-0.02,0.07,0.11,249
0.14,0.94,-0.07,-0.00,0.04,0.11,249
0.14,0.94,-0.07,0.02,0.01,0.06,250
0.14,0.94,-0.07,0.03,-0.03,0.01,249
0.14,0.94,-0.07,0.02,-0.04,0.01,249
0.14,0.94,-0.07,0.02,-0.04,0.03,249
0.14,0.94,-0.07,0.02,-0.03,-0.00,249
0.14,0.94,-0.07,0.05,0.02,0.05,249
0.14,0.94,-0.07,0.03,0.07,0.10,249
0.14,0.94,-0.07,0.02,0.08,0.11,249
0.14,0.94,-0.07,-0.02,0.05,0.05,249
0.14,0.94,-0.07,-0.05,-0.01,-0.08,249
0.14,0.94,-0.07,-0.03,-0.08,-0.18,249
0.14,0.94,-0.07,-0.05,-0.06,-0.18,249
0.14,0.94,-0.07,-0.09,-0.01,-0.13,249
0.14,0.94,-0.07,-0.09,-0.01,-0.08,249
0.14,0.94,-0.07,-0.06,-0.04,-0.05,249
0.14,0.94,-0.07,-0.03,-0.07,-0.06,249
0.14,0.94,-0.07,0.03,-0.02,-0.03,249
0.14,0.94,-0.07,0.04,0.01,0.08,249
0.14,0.94,-0.07,0.09,0.06,0.16,249
0.14,0.94,-0.07,0.13,0.14,0.24,249
0.14,0.94,-0.07,0.11,0.10,0.16,249
0.14,0.94,-0.07,0.12,0.09,0.09,249
0.14,0.94,-0.07,0.05,0.06,0.09,249
0.14,0.94,-0.07,-0.03,0.01,0.05,249
0.14,0.94,-0.07,-0.05,-0.02,0.03,249
0.14,0.94,-0.07,-0.06,-0.04,-0.05,249
0.14,0.94,-0.07,-0.10,-0.04,-0.19,249
0.14,0.94,-0.07,-0.10,-0.07,-0.22,249
0.14,0.94,-0.07,-0.07,-0.06,-0.12,249
0.14,0.94,-0.07,-0.10,-0.04,-0.01,249
0.14,0.94,-0.07,-0.08,-0.01,0.02,250
0.14,0.94,-0.07,-0.01,0.04,-0.02,249
0.14,0.94,-0.07,0.01,0.05,-0.02,249
0.14,0.94,-0.07,-0.04,0.01,-0.01,249
0.14,0.94,-0.07,-0.05,0.01,0.01,249
0.14,0.94,-0.07,-0.04,-0.02,0.05,249
0.14,0.94,-0.07,-0.06,-0.06,0.05,249
0.14,0.94,-0.07,-0.01,-0.05,-0.00,250
0.14,0.94,-0.07,0.03,-0.00,0.00,249
0.14,0.94,-0.07,0.04,0.02,0.09,249
0.14,0.94,-0.07,0.07,0.01,0.17,249
0.14,0.94,-0.07,0.11,0.04,0.18,249
0.14,0.94,-0.07,0.13,0.03,0.13,249
0.14,0.94,-0.07,0.08,0.03,0.06,249
0.14,0.94,-0.07,0.04,0.04,0.01,249
0.14,0.94,-0.07,-0.01,-0.01,-0.04,250
0.14,0.94,-0.07,-0.09,-0.07,-0.10,249
0.14,0.94,-0.07,-0.12,-0.11,-0.13,249
0.14,0.94,-0.07,-0.09,-0.10,-0.16,249
0.14,0.94,-0.07,-0.07,-0.04,-0.15,249
0.14,0.94,-0.07,-0.03,-0.01,-0.05,249
0.14,0.94,-0.07,0.00,0.01,0.02,249
0.14,0.94,-0.07,0.05,0.03,-0.01,249
0.14,0.94,-0.07,0.06,0.05,-0.04,249
0.14,0.94,-0.07,0.05,0.08,0.03,250
0.14,0.94,-0.07,0.06,0.03,0.12,249
0.14,0.94,-0.07,0.04,0.00,0.13,249
0.14,0.94,-0.07,0.02,-0.00,0.02,249
0.14,0.94,-0.07,-0.01,-0.04,-0.06,249
0.14,0.94,-0.07,-0.05,-0.05,-0.09,249
0.14,0.94,-0.07,-0.05,-0.06,-0.07,249
0.14,0.94,-0.07,-0.06,-0.04,-0.06,249
0.14,0.94,-0.07,-0.05,-0.01,-0.08,250
0.14,0.94,-0.07,-0.01,-0.01,-0.08,249
0.14,0.94,-0.07,0.01,0.01,-0.08,249
0.14,0.94,-0.07,-0.03,0.01,-0.02,249
0.14,0.94,-0.07,-0.06,-0.03,0.03,249
0.14,0.94,-0.07,-0.04,-0.07,0.02,249
0.14,0.94,-0.07,-0.05,-0.07,-0.03,249
0.14,0.94,-0.07,-0.01,0.04,0.02,249
0.14,0.94,-0.07,0.08,0.08,0.13,249
0.14,0.94,-0.07,0.08,0.03,0.18,249
0.14,0.94,-0.07,0.10,0.03,0.15,249
0.14,0.94,-0.07,0.12,0.02,0.09,249
0.14,0.94,-0.07,0.05,-0.01,0.05,249
0.14,0.94,-0.07,0.00,0.01,0.02,250
0.14,0.94,-0.07,-0.02,0.01,0.03,249
0.14,0.94,-0.07,-0.11,-0.08,-0.01,249
0.14,0.94,-0.07,-0.13,-0.09,-0.14,249
0.14,0.94,-0.07,-0.05,-0.04,-0.23,249
0.14,0.94,-0.07,-0.03,-0.06,-0.19,249
0.14,0.94,-0.07,-0.03,-0.08,-0.09,249
0.14,0.94,-0.07,-0.00,0.01,0.04,249
0.14,0.94,-0.07,0.00,0.11,0.05,249
0.14,0.94,-0.07,0.03,0.08,-0.00,249
0.14,0.94,-0.07,0.04,0.01,-0.00,249
0.14,0.94,-0.07,-0.00,-0.02,0.01,249
0.14,0.94,-0.07,-0.00,-0.05,0.06,249
0.14,0.94,-0.07,0.01,-0.09,0.05,249
0.14,0.94,-0.07,0.01,-0.11,-0.05,249
0.14,0.94,-0.07,0.02,-0.03,-0.02,249
0.14,0.94,-0.07,0.04,0.02,0.00,250
0.14,0.94,-0.07,0.00,0.01,0.02,249
0.14,0.94,-0.07,0.00,0.02,0.03,249
0.14,0.94,-0.07,0.00,0.01,0.02,249
0.14,0.94,-0.07,-0.02,0.01,0.01,249
0.14,0.94,-0.07,-0.01,0.00,0.02,249
0.14,0.94,-0.07,0.02,-0.04,0.04,249
0.14,0.94,-0.07,0.00,-0.01,0.03,249
0.14,0.94,-0.07,-0.02,-0.01,-0.05,249
0.14,0.94,-0.07,-0.02,-0.03,-0.04,249
0.14,0.94,-0.07,-0.02,-0.00,0.05,249
0.14,0.94,-0.07,0.02,-0.00,-0.01,249
0.14,0.94,-0.07,0.04,-0.01,-0.08,249
0.14,0.94,-0.07,0.01,-0.01,-0.09,249
0.14,0.94,-0.07,-0.04,0.01,-0.08,249
0.14,0.94,-0.07,-0.04,0.04,-0.02,249
0.14,0.94,-0.07,-0.02,0.01,0.08,249
0.14,0.94,-0.07,0.03,-0.00,0.08,249
0.14,0.94,-0.07,0.04,-0.02,0.05,249
0.14,0.94,-0.07,0.02,-0.06,0.06,249
0.14,0.94,-0.07,0.02,-0.07,0.06,249
0.14,0.94,-0.07,-0.00,-0.00,0.08,249
0.14,0.94,-0.07,0.02,0.02,0.06,249
0.14,0.94,-0.07,0.07,0.02,0.02,249
0.14,0.94,-0.07,0.00,0.00,0.01,249
0.14,0.94,-0.07,-0.00,-0.04,-0.01,250
0.14,0.94,-0.07,-0.02,-0.03,-0.03,249
0.14,0.94,-0.07,-0.08,-0.03,-0.01,249
0.14,0.94,-0.07,-0.09,-0.02,-0.09,249
0.14,0.94,-0.07,-0.08,-0.02,-0.14,249
0.14,0.94,-0.07,-0.04,-0.01,-0.13,249
0.14,0.94,-0.07,-0.01,0.02,-0.07,249
0.14,0.94,-0.07,0.00,0.04,0.04,250
0.14,0.94,-0.07,0.03,0.03,0.10,249
0.14,0.94,-0.07,0.03,0.01,0.09,249
0.14,0.94,-0.07,0.03,-0.01,-0.01,249
0.14,0.94,-0.07,0.01,-0.01,-0.05,249
0.14,0.94,-0.07,-0.01,-0.03,0.01,249
0.14,0.94,-0.07,-0.03,-0.02,0.05,249
0.14,0.94,-0.07,-0.08,0.00,0.04,249
0.14,0.94,-0.07,-0.02,0.01,-0.03,249
0.14,0.94,-0.07,0.02,0.01,-0.08,249
0.14,0.94,-0.07,-0.04,0.04,-0.05,250
0.14,0.94,-0.07,-0.05,0.06,-0.00,249
0.14,0.94,-0.07,-0.04,0.04,0.02,249
0.14,0.94,-0.07,-0.03,-0.00,-0.02,250
0.14,0.94,-0.07,-0.01,-0.02,-0.06,249
0.14,0.94,-0.07,-0.01,0.01,-0.05,249
0.14,0.94,-0.07,-0.01,-0.01,-0.03,249
0.14,0.94,-0.07,0.00,-0.00,0.02,249
0.14,0.94,-0.07,0.04,0.02,0.13,249
0.14,0.94,-0.07,0.08,-0.04,0.14,249
0.14,0.94,-0.07,0.05,-0.02,0.08,249
0.14,0.94,-0.07,0.07,0.06,-0.01,249
0.14,0.94,-0.07,0.12,0.02,-0.02,249
0.14,0.94,-0.07,0.05,0.01,0.15,249
0.14,0.94,-0.07,0.02,0.03,0.26,249
0.14,0.94,-0.07,0.02,0.01,0.11,249
0.14,0.94,-0.07,0.04,-0.03,-0.14,249
0.14,0.94,-0.07,0.07,0.01,-0.21,250
0.14,0.94,-0.07,-0.04,0.03,-0.12,249
0.14,0.94,-0.07,-0.17,-0.04,-0.04,249
0.14,0.94,-0.07,-0.13,0.00,-0.00,249
0.14,0.94,-0.07,-0.08,0.04,-0.07,249
0.14,0.94,-0.07,-0.07,-0.11,-0.23,249
0.14,0.94,-0.07,-0.05,-0.13,-0.21,249
0.13,0.94,-0.07,0.01,0.07,0.04,249
0.14,0.94,-0.07,0.06,0.16,0.28,249
0.14,0.94,-0.07,0.10,0.11,0.18,249
0.14,0.94,-0.07,0.14,0.09,-0.01,249
0.14,0.94,-0.07,0.04,0.08,-0.02,249
0.14,0.94,-0.07,-0.05,-0.01,-0.02,249
0.14,0.94,-0.07,-0.04,-0.09,-0.06,249
0.14,0.94,-0.07,-0.05,-0.12,-0.03,249
0.14,0.94,-0.07,-0.02,-0.09,0.01,249
0.14,0.94,-0.07,0.04,-0.11,-0.11,249
0.14,0.94,-0.07,0.11,-0.02,-0.17,249
0.14,0.94,-0.07,0.17,0.20,0.14,249
0.14,0.94,-0.07,0.15,0.23,0.43,249
0.14,0.94,-0.07,0.12,0.12,0.38,249
0.14,0.94,-0.07,0.11,0.10,0.14,249
0.14,0.94,-0.07,0.01,0.03,-0.04,250
0.14,0.94,-0.07,-0.07,-0.09,-0.11,249
0.14,0.94,-0.07,-0.10,-0.14,-0.18,249
0.14,0.94,-0.07,-0.14,-0.10,-0.22,249
0.14,0.94,-0.07,-0.14,-0.06,-0.19,249
0.14,0.94,-0.07,-0.08,-0.08,-0.28,249
0.14,0.94,-0.07,0.02,-0.08,-0.30,249
0.14,0.94,-0.07,0.07,0.06,-0.05,249
0.14,0.94,-0.07,0.07,0.17,0.27,249
0.14,0.94,-0.07,0.06,0.07,0.34,249
0.14,0.94,-0.07,0.13,0.03,0.16,249
0.14,0.94,-0.07,0.16,0.10,0.05,249
0.14,0.94,-0.07,0.05,-0.01,-0.02,249
0.14,0.94,-0.07,-0.04,-0.09,-0.05,249
0.14,0.94,-0.07,-0.04,-0.02,-0.01,249
0.14,0.94,-0.07,-0.07,0.03,-0.03,249
0.14,0.94,-0.07,-0.10,-0.00,-0.13,249
0.14,0.94,-0.07,-0.08,-0.03,-0.20,249
0.14,0.94,-0.07,-0.09,-0.01,-0.15,249
0.14,0.94,-0.07,-0.06,-0.06,-0.07,249
0.14,0.94,-0.07,-0.02,-0.08,-0.10,249
0.14,0.94,-0.07,0.07,-0.01,-0.07,249
0.14,0.94,-0.07,0.16,0.11,0.10,249
0.14,0.94,-0.07,0.13,0.16,0.26,249
0.14,0.94,-0.07,0.13,0.15,0.34,249
0.14,0.94,-0.07,0.11,0.14,0.27,249
0.14,0.94,-0.07,-0.04,0.01,0.06,249
0.14,0.94,-0.07,-0.13,-0.11,-0.09,249
0.14,0.94,-0.07,-0.15,-0.19,-0.19,249
0.14,0.94,-0.07,-0.19,-0.24,-0.20,249
0.14,0.94,-0.07,-0.09,-0.17,-0.14,249
0.14,0.94,-0.07,0.07,-0.03,-0.06,249
0.14,0.94,-0.07,0.13,0.08,0.02,249
0.14,0.94,-0.07,0.17,0.15,0.11,249
0.14,0.94,-0.07,0.16,0.21,0.17,250
0.14,0.94,-0.07,0.06,0.23,0.19,249
0.14,0.94,-0.07,-0.04,0.11,0.09,249
0.14,0.94,-0.07,-0.13,-0.12,-0.13,249
0.14,0.94,-0.07,-0.25,-0.29,-0.34,249
0.14,0.94,-0.07,-0.28,-0.34,-0.36,249
0.14,0.94,-0.07,-0.18,-0.27,-0.23,249
0.14,0.94,-0.07,-0.05,-0.11,-0.10,249
0.14,0.94,-0.07,0.10,0.07,0.06,249
0.14,0.94,-0.07,0.18,0.23,0.19,249
0.14,0.94,-0.07,0.26,0.32,0.28,249
0.14,0.94,-0.07,0.24,0.30,0.34,249
0.14,0.94,-0.07,0.11,0.23,0.34,249
0.14,0.94,-0.07,-0.03,0.05,0.19,249
0.14,0.94,-0.07,-0.15,-0.21,-0.15,249
0.14,0.94,-0.07,-0.22,-0.31,-0.37,249
0.14,0.94,-0.07,-0.22,-0.30,-0.39,249
0.14,0.94,-0.07,-0.12,-0.20,-0.24,250
0.14,0.94,-0.07,0.02,0.03,-0.05,249
0.14,0.94,-0.07,0.12,0.25,0.10,249
0.14,0.94,-0.07,0.14,0.29,0.19,249
0.14,0.94,-0.07,0.10,0.24,0.22,249
0.14,0.94,-0.07,0.02,0.17,0.18,250
0.14,0.94,-0.07,-0.08,0.00,0.06,249
0.14,0.94,-0.07,-0.16,-0.16,-0.11,249
0.14,0.94,-0.07,-0.12,-0.24,-0.21,249
0.14,0.94,-0.07,-0.06,-0.22,-0.24,249
0.14,0.94,-0.07,-0.04,-0.11,-0.17,249
0.14,0.94,-0.07,0.07,0.04,-0.02,249
0.14,0.94,-0.07,0.19,0.18,0.16,249
0.14,0.94,-0.07,0.23,0.22,0.26,249
0.14,0.94,-0.07,0.19,0.16,0.26,249
0.14,0.94,-0.07,0.11,0.11,0.25,250
0.14,0.94,-0.07,0.03,0.01,0.13,250
0.14,0.94,-0.07,-0.11,-0.14,-0.00,249
0.14,0.94,-0.07,-0.18,-0.22,-0.15,249
0.14,0.94,-0.07,-0.14,-0.21,-0.27,249
0.14,0.94,-0.07,-0.13,-0.11,-0.21,249
0.14,0.94,-0.07,-0.05,0.01,-0.09,249
0.14,0.94,-0.07,0.00,0.10,-0.02,249
0.14,0.94,-0.07,0.04,0.16,-0.00,249
0.14,0.94,-0.07,0.04,0.15,0.03,249
0.14,0.94,-0.07,-0.06,0.07,0.01,249
0.14,0.94,-0.07,-0.11,-0.08,-0.09,249
0.14,0.94,-0.07,-0.13,-0.17,-0.13,249
0.14,0.94,-0.07,-0.13,-0.18,-0.12,249
0.14,0.94,-0.07,-0.05,-0.13,-0.11,249
0.14,0.94,-0.07,0.05,-0.01,0.02,249
0.14,0.94,-0.07,0.12,0.11,0.13,249
0.14,0.94,-0.07,0.15,0.20,0.17,249
0.14,0.94,-0.07,0.16,0.19,0.24,249
0.14,0.94,-0.07,0.10,0.15,0.25,249
0.14,0.94,-0.07,0.04,0.11,0.19,249
0.14,0.94,-0.07,-0.05,-0.02,0.10,249
0.14,0.94,-0.07,-0.11,-0.13,0.01,249
0.14,0.94,-0.07,-0.10,-0.17,-0.09,249
0.14,0.94,-0.07,-0.08,-0.19,-0.22,250
0.14,0.94,-0.07,-0.07,-0.10,-0.23,249
0.14,0.94,-0.07,-0.02,0.04,-0.13,250
0.14,0.94,-0.07,0.01,0.09,-0.04,250
0.14,0.94,-0.07,-0.02,0.13,-0.02,249
0.14,0.94,-0.07,-0.00,0.14,-0.03,249
0.14,0.94,-0.07,-0.02,0.02,-0.04,249
0.14,0.94,-0.07,-0.07,-0.07,-0.00,249
0.14,0.94,-0.07,-0.09,-0.10,0.03,249
0.14,0.94,-0.07,-0.08,-0.15,-0.03,249
0.14,0.94,-0.07,0.02,-0.12,-0.07,249
0.14,0.94,-0.07,0.07,-0.02,-0.02,249
0.14,0.94,-0.07,0.06,0.03,0.08,249
0.14,0.94,-0.07,0.06,0.07,0.17,249
0.14,0.94,-0.07,0.06,0.10,0.18,249
0.14,0.94,-0.07,0.02,0.05,0.05,249
0.14,0.94,-0.07,-0.03,-0.01,-0.10,249
0.14,0.94,-0.07,-0.06,-0.08,-0.15,249
0.14,0.94,-0.07,-0.08,-0.13,-0.15,250
0.14,0.94,-0.07,-0.06,-0.13,-0.14,249
0.14,0.94,-0.07,-0.03,-0.08,-0.09,250
0.14,0.94,-0.07,0.04,-0.03,-0.04,250
0.14,0.94,-0.07,0.04,0.02,0.06,250
0.14,0.94,-0.07,0.02,0.06,0.16,249
0.14,0.94,-0.07,0.02,0.10,0.18,249
0.14,0.94,-0.07,-0.02,0.09,0.07,249
0.14,0.94,-0.07,-0.07,-0.03,-0.11,249
0.14,0.94,-0.07,-0.10,-0.08,-0.18,250
0.14,0.94,-0.07,-0.11,-0.05,-0.13,249
0.14,0.94,-0.07,-0.11,-0.09,-0.09,249
0.14,0.94,-0.07,-0.07,-0.10,-0.06,249
0.14,0.94,-0.07,-0.01,-0.05,-0.04,249
0.14,0.94,-0.07,0.05,-0.01,0.02,249
0.14,0.94,-0.07,0.12,0.06,0.14,250
0.14,0.94,-0.07,0.17,0.14,0.24,249
0.14,0.94,-0.07,0.14,0.14,0.28,250
0.14,0.94,-0.07,0.08,0.09,0.17,249
0.14,0.94,-0.07,0.04,0.05,-0.02,249
0.14,0.94,-0.07,-0.05,-0.02,-0.12,249
0.14,0.94,-0.07,-0.15,-0.11,-0.20,249
0.14,0.94,-0.07,-0.20,-0.16,-0.24,250
0.14,0.94,-0.07,-0.18,-0.15,-0.32,249
0.14,0.94,-0.07,-0.13,-0.11,-0.34,249
0.14,0.94,-0.07,-0.09,-0.08,-0.25,249
0.14,0.94,-0.07,-0.06,0.01,-0.10,249
0.14,0.94,-0.07,0.01,0.08,0.10,249
0.14,0.94,-0.07,0.03,0.01,0.18,249
0.14,0.94,-0.07,0.09,-0.02,0.11,249
0.14,0.94,-0.07,0.12,0.01,0.11,249
0.14,0.94,-0.07,0.08,0.01,0.23,249
0.14,0.94,-0.07,0.10,0.02,0.28,249
0.14,0.94,-0.07,0.09,0.04,0.22,249
0.14,0.94,-0.07,0.05,0.05,0.15,249
0.14,0.94,-0.07,0.02,0.06,0.05,249
0.14,0.94,-0.07,-0.03,0.05,-0.10,249
0.14,0.94,-0.07,-0.05,0.01,-0.16,249
0.14,0.94,-0.07,-0.13,-0.00,-0.15,249
0.14,0.94,-0.07,-0.19,-0.01,-0.18,249
0.14,0.94,-0.07,-0.16,-0.08,-0.25,250
0.14,0.94,-0.07,-0.11,-0.09,-0.22,250
0.14,0.94,-0.07,-0.07,-0.08,-0.10,250
0.14,0.94,-0.07,-0.06,-0.08,-0.03,249
0.14,0.94,-0.07,0.01,-0.04,0.03,249
0.14,0.94,-0.07,0.07,0.03,0.10,249
0.14,0.94,-0.07,0.10,0.04,0.12,249
0.14,0.94,-0.07,0.12,0.01,0.15,249
0.14,0.94,-0.07,0.08,0.05,0.15,249
0.14,0.94,-0.07,0.06,0.06,0.13,249
0.14,0.94,-0.07,0.04,-0.01,0.08,249
0.14,0.94,-0.07,-0.00,0.01,0.04,249
0.14,0.94,-0.07,-0.00,0.02,0.06,249
0.14,0.94,-0.07,-0.01,-0.04,0.05,249
0.14,0.94,-0.07,0.00,-0.02,0.02,250
0.14,0.94,-0.07,0.00,0.01,0.03,249
0.14,0.94,-0.07,-0.05,0.01,-0.03,249
0.14,0.94,-0.07,-0.08,-0.01,-0.11,249
0.14,0.94,-0.07,-0.09,-0.03,-0.08,249
0.14,0.94,-0.07,-0.09,-0.07,-0.11,249
0.14,0.94,-0.07,-0.09,-0.11,-0.22,249
0.14,0.94,-0.07,-0.11,-0.11,-0.24,249
0.14,0.94,-0.07,-0.10,-0.04,-0.18,249
0.14,0.94,-0.07,-0.06,-0.00,-0.08,249
0.14,0.94,-0.07,-0.04,-0.02,-0.01,249
0.14,0.94,-0.07,0.03,0.06,0.07,249
0.14,0.94,-0.07,0.13,0.11,0.15,249
0.14,0.94,-0.07,0.12,0.06,0.21,250
0.14,0.94,-0.07,0.10,0.09,0.25,249
0.14,0.94,-0.07,0.12,0.11,0.26,249
0.14,0.94,-0.07,0.13,0.03,0.19,249
0.14,0.94,-0.07,0.10,-0.00,0.06,249
0.14,0.94,-0.07,0.04,0.02,-0.01,249
0.14,0.94,-0.07,-0.03,0.01,-0.05,249
0.14,0.94,-0.07,-0.11,-0.02,-0.08,250
0.14,0.94,-0.07,-0.11,-0.04,-0.14,249
0.14,0.94,-0.07,-0.07,-0.04,-0.22,249
0.14,0.94,-0.07,-0.10,-0.06,-0.21,249
0.14,0.94,-0.07,-0.14,-0.05,-0.12,249
0.14,0.94,-0.07,-0.09,-0.03,-0.07,250
0.14,0.94,-0.07,-0.04,-0.04,-0.05,249
0.14,0.94,-0.07,0.03,-0.04,-0.07,250
0.14,0.94,-0.07,0.07,-0.03,-0.11,249
0.14,0.94,-0.07,0.04,-0.02,0.00,249
0.14,0.94,-0.07,0.04,0.05,0.15,249
0.14,0.94,-0.07,0.05,0.10,0.23,250
0.14,0.94,-0.07,0.03,0.06,0.17,249
0.14,0.94,-0.07,-0.01,-0.01,0.02,249
0.14,0.94,-0.07,0.02,-0.05,-0.09,249
0.14,0.94,-0.07,-0.01,-0.04,-0.10,249
0.14,0.94,-0.07,-0.08,-0.01,-0.05,249
0.14,0.94,-0.07,-0.07,-0.00,-0.02,249
0.14,0.94,-0.07,-0.05,0.01,-0.03,249
0.14,0.94,-0.07,-0.04,-0.01,-0.05,249
0.14,0.94,-0.07,-0.01,0.02,-0.07,249
0.14,0.94,-0.07,0.01,0.02,0.02,250
0.14,0.94,-0.07,0.01,-0.00,0.08,249
0.14,0.94,-0.07,0.00,0.01,0.04,249
0.14,0.94,-0.07,0.00,-0.01,0.03,249
0.14,0.94,-0.07,0.04,0.01,0.02,249
0.14,0.94,-0.07,0.04,0.01,0.04,249
0.14,0.94,-0.07,0.00,-0.00,0.04,249
0.14,0.94,-0.07,-0.01,-0.01,-0.02,249
0.14,0.94,-0.07,0.01,0.00,-0.00,249
0.14,0.94,-0.07,0.02,0.02,0.01,249
0.14,0.94,-0.07,0.02,0.02,-0.03,250
0.14,0.94,-0.07,0.03,0.01,-0.03,249
0.14,0.94,-0.07,0.03,-0.00,0.02,249
0.14,0.94,-0.07,0.04,0.04,0.09,249
0.14,0.94,-0.07,0.02,0.04,0.13,249
0.14,0.94,-0.07,-0.03,-0.02,0.06,249
0.14,0.94,-0.07,-0.06,-0.06,-0.01,249
0.14,0.94,-0.07,-0.05,-0.06,-0.10,249
0.14,0.94,-0.07,-0.06,-0.06,-0.16,250
0.14,0.94,-0.07,-0.07,-0.06,-0.16,249
0.14,0.94,-0.07,-0.04,-0.05,-0.16,249
0.14,0.94,-0.07,-0.05,-0.01,-0.13,249
0.14,0.94,-0.07,-0.06,0.02,-0.06,249
0.14,0.94,-0.07,0.02,0.05,-0.03,249
0.14,0.94,-0.07,0.07,0.04,0.05,249
0.14,0.94,-0.07,0.04,0.00,0.18,249
0.14,0.94,-0.07,0.03,0.01,0.19,249
0.14,0.94,-0.07,0.05,0.02,0.10,249
0.14,0.94,-0.07,0.04,0.02,0.03,249
0.14,0.94,-0.07,0.04,0.04,0.07,249
0.14,0.94,-0.07,0.05,0.03,0.18,250
0.14,0.94,-0.07,0.02,0.02,0.23,249
0.14,0.94,-0.07,0.01,0.01,0.12,249
0.14,0.94,-0.07,0.02,-0.02,-0.09,249
0.14,0.94,-0.07,-0.02,-0.02,-0.14,249
0.14,0.94,-0.07,-0.04,-0.01,-0.06,249
0.14,0.94,-0.07,-0.06,-0.01,0.00,249
0.14,0.94,-0.07,-0.07,-0.05,-0.03,249
0.14,0.94,-0.07,-0.03,-0.05,-0.11,249
0.14,0.94,-0.07,0.02,-0.02,-0.15,249
0.14,0.94,-0.07,0.05,-0.00,-0.09,249
0.14,0.94,-0.07,0.05,0.01,0.05,249
0.14,0.94,-0.07,0.05,0.01,0.14,249
0.14,0.94,-0.07,0.08,0.01,0.07,250
0.14,0.94,-0.07,0.05,-0.03,-0.10,249
0.14,0.94,-0.07,-0.01,-0.07,-0.14,249
0.14,0.94,-0.07,-0.06,-0.02,-0.03,249
0.14,0.94,-0.07,-0.10,0.01,0.01,249
0.14,0.94,-0.07,-0.07,-0.05,-0.03,249
0.14,0.94,-0.07,-0.02,-0.08,-0.08,249
0.14,0.94,-0.07,-0.02,-0.05,-0.10,250
0.14,0.94,-0.07,-0.01,0.03,-0.02,249
0.14,0.94,-0.07,0.02,0.07,0.11,249
0.14,0.94,-0.07,0.04,0.02,0.17,249
0.14,0.94,-0.07,0.05,0.01,0.11,249
0.14,0.94,-0.07,0.04,0.04,0.05,249
0.14,0.94,-0.07,0.03,0.02,0.03,250
0.14,0.94,-0.07,0.04,-0.00,0.02,249
0.14,0.94,-0.07,0.01,-0.02,0.01,249
0.14,0.94,-0.07,-0.02,-0.05,-0.07,249
0.14,0.94,-0.07,-0.03,-0.08,-0.16,249
0.14,0.94,-0.07,-0.02,-0.04,-0.16,249
0.14,0.94,-0.07,0.01,0.02,-0.06,249
0.14,0.94,-0.07,-0.04,0.01,-0.03,249
0.14,0.94,-0.07,-0.05,-0.00,-0.03,249
0.14,0.94,-0.07,0.01,0.02,-0.05,249
0.14,0.94,-0.07,0.03,0.01,-0.07,249
0.14,0.94,-0.07,0.02,0.01,-0.01,249
0.14,0.94,-0.07,0.00,0.01,0.07,249
0.14,0.94,-0.07,0.05,0.01,0.12,249
0.14,0.94,-0.07,0.06,0.02,0.07,249
0.14,0.94,-0.07,0.06,0.03,0.05,249
0.14,0.94,-0.07,0.03,0.01,0.05,249
0.14,0.94,-0.07,-0.04,-0.02,0.00,249
0.14,0.94,-0.07,-0.04,-0.04,-0.06,249
0.14,0.94,-0.07,-0.04,-0.01,-0.05,249
0.14,0.94,-0.07,-0.03,0.00,-0.06,249
0.14,0.94,-0.07,0.02,-0.01,-0.05,249
0.14,0.94,-0.07,0.04,0.04,0.04,249
0.14,0.94,-0.07,-0.02,0.03,0.07,249
0.14,0.94,-0.07,-0.07,0.00,0.06,249
0.14,0.94,-0.07,-0.04,0.02,0.04,249
0.14,0.94,-0.07,0.01,-0.02,0.01,249
0.14,0.94,-0.07,-0.01,-0.04,-0.01,249
0.14,0.94,-0.07,-0.01,-0.02,0.00,249
0.14,0.94,-0.07,-0.00,-0.04,-0.00,249
0.14,0.94,-0.07,0.00,-0.02,-0.05,249
0.14,0.94,-0.07,-0.01,-0.01,-0.05,249
0.14,0.94,-0.07,-0.03,-0.02,-0.00,249
0.14,0.94,-0.07,-0.04,0.02,-0.03,249
0.14,0.94,-0.07,-0.01,0.01,-0.09,249
0.14,0.94,-0.07,-0.01,0.01,-0.12,249
0.14,0.94,-0.07,-0.06,0.04,-0.09,249
0.14,0.94,-0.07,-0.04,0.04,0.02,249
0.14,0.94,-0.07,0.02,0.03,0.09,249
0.14,0.94,-0.07,0.02,0.01,0.05,249
0.14,0.94,-0.07,0.01,-0.01,0.02,249
0.14,0.94,-0.07,0.03,-0.01,0.03,250
0.14,0.94,-0.07,0.05,0.01,0.06,249
0.14,0.94,-0.07,0.03,0.00,0.09,249
0.14,0.94,-0.07,0.02,-0.02,0.08,249
0.14,0.94,-0.07,0.05,-0.01,0.01,249
0.14,0.94,-0.07,0.02,0.03,-0.04,249
0.14,0.94,-0.07,-0.03,0.05,-0.03,249
0.14,0.94,-0.07,0.00,0.03,-0.03,249
0.14,0.94,-0.07,0.01,0.01,0.00,249
0.14,0.94,-0.07,-0.00,0.01,-0.01,249
0.14,0.94,-0.07,-0.00,-0.04,-0.06,249
0.14,0.94,-0.07,-0.04,-0.05,-0.08,249
0.14,0.94,-0.07,-0.05,0.01,-0.10,249
0.14,0.94,-0.07,-0.04,0.03,-0.07,249
0.14,0.94,-0.07,-0.03,0.01,-0.01,249
0.14,0.94,-0.07,-0.01,0.01,0.00,249
0.14,0.94,-0.07,0.02,0.06,0.03,249
0.14,0.94,-0.07,0.01,0.06,0.07,249
0.14,0.94,-0.07,-0.01,0.02,0.02,249
0.14,0.94,-0.07,0.02,0.01,0.00,249
0.14,0.94,-0.07,0.04,-0.02,-0.01,249
0.14,0.94,-0.07,0.04,-0.00,-0.05,249
0.14,0.94,-0.07,0.04,0.06,-0.01,249
0.14,0.94,-0.07,0.05,0.09,0.06,250
0.14,0.94,-0.07,0.06,0.08,0.07,249
0.14,0.94,-0.07,0.03,0.01,0.07,249
0.14,0.94,-0.07,-0.00,-0.01,0.07,249
0.14,0.94,-0.07,-0.04,0.01,0.01,249
0.14,0.94,-0.07,-0.09,-0.01,-0.06,249
0.14,0.94,-0.07,-0.08,-0.02,-0.07,250
0.14,0.94,-0.07,-0.03,0.01,-0.04,249
0.14,0.94,-0.07,-0.00,0.01,-0.02,249
0.14,0.94,-0.07,0.02,0.01,0.00,249
0.14,0.94,-0.07,0.02,0.04,0.10,249
0.14,0.94,-0.07,-0.02,0.03,0.12,249
0.14,0.94,-0.07,-0.01,0.01,0.04,249
0.14,0.94,-0.07,0.00,-0.03,-0.01,249
0.14,0.94,-0.07,0.02,-0.06,-0.05,249
0.14,0.94,-0.07,0.01,-0.04,-0.06,249
0.14,0.94,-0.07,0.01,0.05,-0.03,249
0.14,0.94,-0.07,0.06,0.06,0.02,249
0.14,0.94,-0.07,0.05,0.07,0.09,249
0.14,0.94,-0.07,0.01,0.12,0.15,249
0.14,0.94,-0.07,-0.03,0.06,0.07,249
0.14,0.94,-0.07,-0.05,-0.05,-0.05,250
0.14,0.94,-0.07,-0.07,-0.13,-0.18,249
0.14,0.94,-0.07,-0.09,-0.15,-0.25,249
0.14,0.94,-0.07,-0.05,-0.10,-0.16,250
0.14,0.94,-0.07,0.02,0.00,-0.03,249
0.14,0.94,-0.07,0.04,0.11,0.08,249
0.14,0.94,-0.07,0.02,0.12,0.08,249
0.14,0.94,-0.07,-0.03,0.04,0.01,249
0.14,0.94,-0.07,-0.04,-0.02,-0.03,249
0.14,0.94,-0.07,-0.03,-0.06,-0.05,249
0.14,0.94,-0.07,-0.06,-0.10,-0.04,250
0.14,0.94,-0.07,-0.03,-0.08,-0.03,249
0.14,0.94,-0.07,0.05,-0.04,-0.01,249
0.14,0.94,-0.07,0.11,0.01,0.11,249
0.14,0.94,-0.07,0.16,0.12,0.28,249
0.14,0.94,-0.07,0.12,0.15,0.37,249
0.14,0.94,-0.07,0.07,0.12,0.32,249
0.14,0.94,-0.07,0.05,0.03,0.08,249
0.14,0.94,-0.07,-0.02,-0.11,-0.12,250
0.14,0.94,-0.07,-0.06,-0.16,-0.21,249
0.14,0.94,-0.07,-0.08,-0.10,-0.18,249
0.14,0.94,-0.07,-0.09,-0.01,-0.06,249
0.14,0.94,-0.07,-0.08,0.02,0.01,249
0.14,0.94,-0.07,-0.03,0.07,-0.01,249
0.14,0.94,-0.07,-0.01,0.06,-0.09,249
0.14,0.94,-0.07,-0.03,0.02,-0.05,249
0.14,0.94,-0.07,-0.04,-0.02,-0.02,249
0.14,0.94,-0.07,-0.06,-0.11,-0.11,249
0.14,0.94,-0.07,0.02,-0.08,-0.11,250
0.14,0.94,-0.07,0.06,0.01,-0.02,249
0.14,0.94,-0.07,0.04,0.04,0.10,249
0.14,0.94,-0.07,0.06,0.07,0.22,249
0.14,0.94,-0.07,0.07,0.09,0.24,249
0.14,0.94,-0.07,0.04,0.05,0.13,249
0.14,0.94,-0.07,0.03,-0.00,-0.05,249
0.14,0.94,-0.07,0.03,-0.08,-0.12,249
0.14,0.94,-0.07,0.00,-0.09,-0.10,250
0.14,0.94,-0.07,-0.01,0.01,-0.06,250
0.14,0.94,-0.07,-0.01,0.04,-0.01,249
0.14,0.94,-0.07,-0.00,0.01,0.02,249
0.14,0.94,-0.07,-0.02,0.01,0.00,249
0.14,0.94,-0.07,-0.03,0.01,-0.02,249
0.14,0.94,-0.07,-0.02,0.01,-0.03,249
0.14,0.94,-0.07,-0.08,-0.03,-0.08,249
0.14,0.94,-0.07,-0.07,-0.08,-0.11,249
0.14,0.94,-0.07,0.01,-0.07,-0.10,249
0.14,0.94,-0.07,0.01,-0.04,-0.10,249
0.14,0.94,-0.07,0.02,0.04,-0.03,249
0.14,0.94,-0.07,0.04,0.08,0.08,249
0.14,0.94,-0.07,0.03,0.06,0.08,249
0.14,0.94,-0.07,0.02,0.05,0.02,249
0.14,0.94,-0.07,-0.01,0.01,0.00,249
0.14,0.94,-0.07,-0.02,-0.04,0.02,249
0.14,0.94,-0.07,-0.01,-0.03,0.01,249
0.14,0.94,-0.07,-0.00,-0.03,-0.02,249
0.14,0.94,-0.07,0.01,-0.06,-0.01,249
0.14,0.94,-0.07,-0.00,-0.06,0.00,249
0.14,0.94,-0.07,-0.00,-0.01,-0.01,249
0.14,0.94,-0.07,0.01,0.01,0.00,249
0.14,0.94,-0.07,-0.03,0.01,0.03,249
0.14,0.94,-0.07,-0.04,0.04,-0.01,249
0.14,0.94,-0.07,-0.01,0.03,-0.04,249
0.14,0.94,-0.07,-0.00,-0.02,-0.09,249
0.14,0.94,-0.07,-0.01,-0.09,-0.12,249
0.14,0.94,-0.07,0.01,-0.07,-0.08,249
0.14,0.94,-0.07,0.04,-0.01,-0.04,249
0.14,0.94,-0.07,0.07,0.04,0.05,249
0.14,0.94,-0.07,0.06,0.05,0.08,249
0.14,0.94,-0.07,0.03,0.04,0.06,250
0.14,0.94,-0.07,0.01,0.02,0.02,249
0.14,0.94,-0.07,0.05,0.02,0.03,249
0.14,0.94,-0.07,0.05,0.03,0.03,249
0.14,0.94,-0.07,-0.02,-0.02,0.00,249
0.14,0.94,-0.07,-0.04,-0.05,0.03,249
0.14,0.94,-0.07,-0.06,-0.01,-0.01,249
0.14,0.94,-0.07,-0.06,0.01,-0.07,249
0.14,0.94,-0.07,-0.04,0.01,-0.07,249
0.14,0.94,-0.07,-0.03,0.03,-0.01,249
0.14,0.94,-0.07,-0.01,0.06,0.04,249
0.14,0.94,-0.07,0.02,0.03,0.05,250
0.14,0.94,-0.07,0.04,-0.03,-0.01,249
0.14,0.94,-0.07,0.05,-0.04,-0.08,249
0.14,0.94,-0.07,0.05,0.01,-0.04,249
0.14,0.94,-0.07,0.09,0.02,0.10,249
0.14,0.94,-0.07,0.14,0.06,0.21,250
0.14,0.94,-0.07,0.11,0.09,0.19,249
0.14,0.94,-0.07,0.08,0.04,0.13,249
0.14,0.94,-0.07,0.02,0.01,0.10,249
0.14,0.94,-0.07,-0.09,-0.02,0.07,249
0.14,0.94,-0.07,-0.13,-0.07,-0.04,249
0.14,0.94,-0.07,-0.11,-0.12,-0.16,249
0.14,0.94,-0.07,-0.07,-0.12,-0.24,249
0.14,0.94,-0.07,-0.01,-0.04,-0.21,249
0.14,0.94,-0.07,0.04,0.07,-0.05,250
0.14,0.94,-0.07,0.04,0.15,0.12,249
0.14,0.94,-0.07,0.01,0.13,0.16,249
0.14,0.94,-0.07,-0.05,0.07,0.08,249
0.14,0.94,-0.07,-0.06,-0.03,-0.06,249
0.14,0.94,-0.07,-0.06,-0.10,-0.14,249
0.14,0.94,-0.07,-0.08,-0.15,-0.09,249
0.14,0.94,-0.07,-0.01,-0.11,-0.03,249
0.14,0.94,-0.07,0.05,0.01,0.06,249
0.14,0.94,-0.07,0.13,0.15,0.18,250
0.14,0.94,-0.07,0.17,0.23,0.22,249
0.14,0.94,-0.07,0.08,0.22,0.23,249
0.14,0.94,-0.07,0.04,0.14,0.13,249
0.14,0.94,-0.07,-0.04,-0.03,-0.09,249
0.14,0.94,-0.07,-0.14,-0.18,-0.24,249
0.14,0.94,-0.07,-0.12,-0.23,-0.32,249
0.14,0.94,-0.07,-0.09,-0.16,-0.29,250
0.14,0.94,-0.07,-0.08,-0.01,-0.15,249
0.14,0.94,-0.07,0.04,0.12,0.04,249
0.14,0.94,-0.07,0.10,0.18,0.21,249
0.14,0.94,-0.07,0.01,0.14,0.23,250
0.14,0.94,-0.07,-0.06,-0.05,0.04,249
0.14,0.94,-0.07,-0.03,-0.19,-0.18,249
0.14,0.94,-0.07,-0.02,-0.17,-0.27,249
0.14,0.94,-0.07,-0.01,-0.09,-0.17,249
0.14,0.94,-0.07,0.05,0.01,0.07,249
0.14,0.94,-0.07,0.10,0.12,0.21,249
0.14,0.94,-0.07,0.10,0.18,0.22,249
0.14,0.94,-0.07,0.04,0.09,0.16,249
0.14,0.94,-0.07,0.00,-0.03,0.07,249
0.14,0.94,-0.07,-0.01,-0.03,-0.03,249
0.14,0.94,-0.07,-0.04,-0.07,-0.06,249
0.14,0.94,-0.07,-0.03,-0.15,-0.11,249
0.14,0.94,-0.07,0.04,-0.09,-0.13,249
0.14,0.94,-0.07,0.03,0.03,-0.03,249
0.14,0.94,-0.07,0.01,0.09,0.09,249
0.14,0.94,-0.07,0.01,0.06,0.19,249
0.14,0.94,-0.07,0.00,0.03,0.19,249
0.14,0.94,-0.07,-0.06,-0.07,-0.05,250
0.14,0.94,-0.07,-0.09,-0.15,-0.32,249
0.14,0.94,-0.07,-0.03,-0.11,-0.36,249
0.14,0.94,-0.07,-0.04,-0.06,-0.24,249
0.14,0.94,-0.07,-0.05,-0.00,-0.04,249
0.14,0.94,-0.07,0.05,0.08,0.10,249
0.14,0.94,-0.07,0.11,0.11,0.15,249
0.14,0.94,-0.07,0.10,0.10,0.12,250
0.14,0.94,-0.07,0.09,0.02,0.11,249
0.14,0.94,-0.07,0.06,-0.01,0.16,249
0.14,0.94,-0.07,0.01,-0.03,0.12,249
0.14,0.94,-0.07,0.04,-0.05,0.03,249
0.14,0.94,-0.07,0.06,-0.02,-0.03,249
0.14,0.94,-0.07,0.03,-0.01,0.04,250
0.14,0.94,-0.07,0.05,0.01,0.16,249
0.14,0.94,-0.07,0.02,0.01,0.19,249
0.14,0.94,-0.07,0.01,0.02,0.11,249
0.14,0.94,-0.07,-0.03,0.00,-0.11,249
0.14,0.94,-0.07,-0.07,-0.02,-0.26,249
0.14,0.94,-0.07,-0.07,-0.01,-0.24,249
0.14,0.94,-0.07,-0.07,-0.06,-0.13,249
0.14,0.94,-0.07,-0.02,-0.06,-0.04,249
0.14,0.94,-0.07,-0.02,-0.02,0.00,249
0.14,0.94,-0.07,-0.04,-0.02,0.01,249
0.14,0.94,-0.07,-0.03,0.01,0.05,249
0.14,0.94,-0.07,-0.01,0.00,0.12,249
0.14,0.94,-0.07,0.06,-0.02,0.06,249
0.14,0.94,-0.07,0.07,0.00,-0.05,249
0.14,0.94,-0.07,0.06,-0.02,-0.08,249
0.14,0.94,-0.07,0.06,-0.02,0.00,249
0.14,0.94,-0.07,0.05,0.03,0.11,249
0.14,0.94,-0.07,-0.01,0.04,0.16,249
0.14,0.94,-0.07,-0.03,0.02,0.09,250
0.14,0.94,-0.07,-0.02,-0.00,-0.01,249
0.14,0.94,-0.07,-0.01,0.01,-0.02,249
0.14,0.94,-0.07,-0.02,-0.02,-0.08,249
0.14,0.94,-0.07,-0.06,-0.03,-0.07,249
0.14,0.94,-0.07,-0.04,0.03,0.03,249
0.14,0.94,-0.07,-0.05,0.01,0.05,249
0.14,0.94,-0.07,-0.04,-0.02,-0.02,249
0.14,0.94,-0.07,-0.01,-0.03,-0.09,250
0.14,0.94,-0.07,-0.00,0.02,-0.05,249
0.14,0.94,-0.07,0.03,0.03,0.02,249
0.14,0.94,-0.07,0.03,0.01,0.00,249
0.14,0.94,-0.07,0.03,0.02,-0.01,250
0.14,0.94,-0.07,0.01,0.04,0.00,249
0.14,0.94,-0.07,-0.00,0.02,0.00,249
0.14,0.94,-0.07,0.01,0.01,0.07,249
0.14,0.94,-0.07,-0.01,-0.00,0.08,249
0.14,0.94,-0.07,-0.01,-0.05,0.00,249
0.14,0.94,-0.07,0.01,-0.04,-0.03,249
0.14,0.94,-0.07,0.01,-0.01,-0.00,249
0.14,0.94,-0.07,0.02,-0.03,0.03,249
0.14,0.94,-0.07,0.01,0.01,0.05,249
0.14,0.94,-0.07,-0.05,0.04,0.03,249
0.14,0.94,-0.07,-0.08,0.05,0.01,249
0.14,0.94,-0.07,-0.05,0.01,-0.01,249
0.14,0.94,-0.07,-0.02,-0.04,-0.08,249
0.14,0.94,-0.07,-0.00,-0.02,-0.13,249
0.14,0.94,-0.07,-0.03,-0.00,-0.10,249
0.14,0.94,-0.07,-0.00,0.04,-0.02,249
0.14,0.94,-0.07,-0.03,0.06,0.02,249
0.14,0.94,-0.07,-0.07,0.00,0.08,249
0.14,0.94,-0.07,-0.05,-0.06,0.11,249
0.14,0.94,-0.07,-0.04,-0.10,-0.00,249
0.14,0.94,-0.07,-0.03,-0.08,-0.14,249
0.14,0.94,-0.07,0.01,-0.08,-0.11,249
0.14,0.94,-0.07,0.05,-0.04,0.02,249
0.14,0.94,-0.07,0.12,0.08,0.05,249
0.14,0.94,-0.07,0.12,0.16,0.06,249
0.14,0.94,-0.07,0.08,0.16,0.12,249
0.14,0.94,-0.07,0.02,0.09,0.13,250
0.14,0.94,-0.07,-0.07,-0.01,0.07,249
0.14,0.94,-0.07,-0.09,-0.09,-0.05,249
0.14,0.94,-0.07,-0.12,-0.17,-0.19,249
0.14,0.94,-0.07,-0.09,-0.15,-0.29,249
0.14,0.94,-0.07,0.01,-0.03,-0.16,249
0.14,0.94,-0.07,0.07,0.09,0.10,250
0.14,0.94,-0.07,0.10,0.21,0.26,249
0.14,0.94,-0.07,0.11,0.22,0.26,249
0.14,0.94,-0.07,0.09,0.13,0.16,249
0.14,0.94,-0.07,0.02,0.02,0.04,249
0.14,0.94,-0.07,-0.08,-0.12,-0.09,249
0.14,0.94,-0.07,-0.06,-0.16,-0.16,249
0.14,0.94,-0.07,-0.01,-0.11,-0.18,249
0.14,0.94,-0.07,0.01,-0.05,-0.09,249
