Accel_X(g),Accel_Y(g),Accel_Z(g),Gyro_X(dps),Gyro_Y(dps),Gyro_Z(dps),Temperature
-0.16,0.02,0.97,0.04,-0.03,-0.02,249
-0.16,0.02,0.97,0.01,-0.01,0.01,249
-0.16,0.02,0.97,-0.02,0.00,-0.01,249
-0.15,0.02,0.97,-0.02,0.00,-0.06,249
-0.16,0.02,0.97,-0.01,0.03,-0.04,249
-0.16,0.02,0.97,0.02,0.03,-0.02,249
-0.16,0.02,0.97,-0.02,-0.00,-0.01,249
-0.16,0.02,0.97,-0.04,-0.02,0.02,249
-0.16,0.02,0.97,-0.01,0.02,0.00,249
-0.15,0.02,0.97,-0.01,0.01,-0.03,249
-0.15,0.02,0.97,0.03,0.00,-0.00,249
-0.15,0.02,0.97,0.11,0.00,0.00,249
-0.15,0.02,0.97,0.04,-0.04,0.01,249
-0.15,0.02,0.97,-0.14,0.00,0.02,249
-0.15,0.02,0.97,-0.06,0.04,0.01,249
-0.15,0.02,0.97,0.15,-0.04,0.00,249
-0.16,0.02,0.98,0.04,-0.09,-0.03,249
-0.16,0.02,0.97,-0.01,0.07,-0.02,249
-0.16,0.02,0.97,0.06,0.17,-0.07,250
-0.16,0.02,0.98,-0.52,0.11,-0.18,249
-0.15,0.02,0.98,-0.38,0.18,-0.08,249
-0.15,0.02,0.97,0.47,0.05,0.06,249
-0.16,0.02,0.97,0.59,-0.51,0.04,249
-0.15,0.02,0.98,0.05,-0.40,0.03,249
-0.16,0.02,0.98,-0.37,0.46,0.07,249
-0.16,0.02,0.97,-0.02,0.29,0.00,249
-0.15,0.02,0.97,0.17,-0.32,-0.03,249
-0.16,0.02,0.97,0.07,-0.06,0.05,249
-0.16,0.02,0.97,0.05,0.12,0.05,249
-0.16,0.02,0.97,-0.15,0.02,-0.04,249
-0.16,0.02,0.98,-0.16,-0.03,-0.04,249
-0.16,0.02,0.97,0.17,-0.06,0.00,249
-0.16,0.02,0.97,0.21,-0.11,-0.03,250
-0.16,0.02,0.97,-0.22,0.05,-0.03,249
-0.15,0.02,0.97,-0.14,0.21,0.01,249
-0.15,0.02,0.97,0.15,-0.03,0.02,249
-0.16,0.02,0.97,0.02,-0.08,-0.01,249
-0.16,0.02,0.97,-0.15,0.15,-0.01,250
-0.16,0.02,0.97,0.09,0.03,0.01,249
-0.16,0.02,0.97,0.15,-0.14,0.04,249
-0.16,0.01,0.97,0.01,0.13,0.09,249
-0.16,0.02,0.97,-0.04,0.26,0.02,250
-0.16,0.02,0.97,-0.15,0.05,-0.07,249
-0.15,0.02,0.97,-0.08,0.04,-0.04,249
-0.16,0.02,0.97,0.09,0.10,-0.03,249
-0.16,0.02,0.97,0.02,-0.05,0.00,249
-0.15,0.02,0.97,-0.22,0.00,0.01,249
-0.16,0.02,0.97,-0.05,0.10,0.00,249
-0.16,0.02,0.97,0.19,-0.07,0.01,249
-0.15,0.02,0.97,0.06,-0.11,0.02,249
-0.15,0.02,0.97,-0.10,0.07,0.04,249
-0.15,0.02,0.97,-0.07,0.06,0.05,250
-0.16,0.02,0.97,-0.02,-0.06,0.05,249
-0.16,0.02,0.97,0.04,-0.02,0.02,249
-0.16,0.02,0.97,0.09,0.02,-0.01,249
-0.16,0.02,0.97,-0.02,-0.04,-0.02,249
-0.16,0.02,0.97,-0.06,0.02,-0.00,249
-0.16,0.02,0.97,0.08,0.03,0.04,249
-0.16,0.02,0.97,0.08,-0.07,0.02,249
-0.15,0.02,0.97,-0.02,-0.06,-0.00,249
-0.15,0.02,0.97,-0.03,0.02,0.03,249
-0.16,0.02,0.97,0.05,-0.01,0.04,249
-0.16,0.02,0.97,0.01,0.02,0.02,249
-0.16,0.02,0.97,-0.02,0.07,0.03,249
-0.16,0.02,0.97,-0.01,-0.06,0.02,249
-0.16,0.02,0.97,-0.01,-0.06,0.02,249
-0.16,0.02,0.97,-0.02,0.06,0.02,249
-0.16,0.02,0.97,-0.04,0.04,-0.05,249
-0.16,0.02,0.97,-0.06,-0.02,-0.03,249
-0.16,0.02,0.97,-0.06,-0.03,0.00,249
-0.16,0.02,0.97,0.03,0.02,0.02,249
-0.15,0.02,0.97,0.06,0.00,0.05,249
-0.16,0.02,0.97,-0.04,0.02,0.04,249
-0.16,0.02,0.97,-0.05,0.05,0.02,249
-0.16,0.02,0.97,-0.02,0.02,0.02,249
-0.16,0.02,0.97,0.01,0.00,0.02,249
-0.16,0.02,0.97,0.02,-0.01,-0.02,249
-0.16,0.02,0.97,0.03,0.01,-0.03,249
-0.16,0.02,0.97,0.05,-0.00,0.03,249
-0.16,0.02,0.97,-0.01,0.00,0.06,249
-0.16,0.02,0.97,-0.01,0.04,0.03,249
-0.16,0.02,0.97,0.02,0.02,0.02,249
-0.16,0.02,0.97,-0.02,-0.01,-0.01,249
-0.16,0.02,0.97,0.01,0.02,-0.04,249
-0.16,0.02,0.97,0.05,-0.00,-0.04,250
-0.16,0.02,0.97,0.03,-0.03,-0.01,249
-0.16,0.02,0.97,-0.05,-0.00,0.00,249
-0.16,0.02,0.97,-0.06,0.02,0.03,249
-0.16,0.02,0.97,0.01,-0.02,0.02,249
-0.16,0.02,0.97,-0.01,-0.05,0.00,249
-0.16,0.02,0.97,-0.02,-0.03,0.00,250
-0.16,0.02,0.97,0.01,-0.03,-0.03,249
-0.16,0.02,0.97,-0.04,-0.01,-0.06,249
-0.16,0.02,0.97,-0.04,0.01,-0.04,249
-0.16,0.02,0.97,0.03,-0.02,-0.00,249
-0.16,0.02,0.97,-0.04,-0.06,0.02,249
-0.15,0.02,0.97,-0.09,-0.05,0.05,249
-0.16,0.02,0.97,-0.04,-0.03,0.05,249
-0.16,0.02,0.97,-0.01,-0.04,0.02,249
-0.15,0.02,0.97,-0.04,-0.08,0.02,249
-0.16,0.02,0.97,-0.04,-0.07,0.00,249
-0.16,0.02,0.97,0.02,-0.07,-0.01,249
-0.16,0.02,0.97,-0.03,-0.01,-0.01,249
-0.15,0.02,0.97,-0.05,0.02,-0.01,249
-0.15,0.02,0.97,0.01,-0.03,0.00,249
-0.16,0.02,0.97,-0.00,-0.05,-0.03,250
-0.16,0.02,0.97,-0.01,-0.02,0.00,249
-0.15,0.02,0.97,0.02,-0.01,0.04,249
-0.15,0.02,0.97,-0.01,0.00,0.01,249
-0.16,0.02,0.97,-0.02,0.04,-0.01,249
-0.16,0.02,0.97,0.06,0.02,-0.00,249
-0.16,0.02,0.97,0.06,-0.02,0.02,249
-0.16,0.02,0.97,-0.01,-0.01,0.00,249
-0.16,0.02,0.97,-0.02,-0.01,-0.04,249
-0.16,0.02,0.97,-0.00,-0.01,-0.02,249
-0.15,0.02,0.97,0.00,0.00,-0.01,249
-0.15,0.02,0.97,0.00,0.01,-0.00,249
-0.16,0.02,0.97,0.01,0.00,0.00,250
-0.16,0.02,0.97,-0.01,0.03,0.00,249
-0.16,0.02,0.97,-0.01,0.03,-0.00,249
-0.16,0.02,0.97,-0.02,-0.00,0.00,249
-0.16,0.02,0.97,0.00,-0.05,0.01,249
-0.16,0.02,0.97,0.03,-0.05,0.03,249
-0.16,0.02,0.97,0.03,-0.03,0.05,249
-0.16,0.02,0.97,0.03,-0.03,-0.02,249
-0.15,0.02,0.97,0.03,-0.02,-0.05,249
-0.15,0.02,0.97,0.02,-0.01,-0.06,249
-0.15,0.02,0.97,0.01,-0.01,-0.05,249
-0.15,0.02,0.97,-0.01,0.01,-0.01,249
-0.15,0.02,0.97,-0.01,0.04,0.02,249
-0.16,0.02,0.97,-0.01,0.03,-0.02,249
-0.16,0.02,0.97,-0.01,0.01,-0.05,249
-0.15,0.02,0.97,0.00,0.00,0.01,249
-0.16,0.02,0.97,-0.01,0.00,0.01,250
-0.16,0.02,0.97,-0.04,-0.01,-0.02,249
-0.16,0.02,0.97,-0.04,0.00,-0.00,249
-0.16,0.02,0.97,0.01,0.01,-0.00,249
-0.16,0.02,0.97,0.04,0.00,-0.03,249
-0.16,0.02,0.97,-0.02,0.03,-0.01,249
-0.16,0.02,0.97,-0.08,0.04,-0.01,249
-0.16,0.02,0.97,-0.04,0.01,-0.03,249
-0.16,0.02,0.97,0.00,-0.01,-0.05,249
-0.16,0.02,0.97,0.04,0.00,-0.01,249
-0.16,0.02,0.97,0.06,0.00,0.03,249
-0.16,0.02,0.97,-0.01,-0.00,0.00,249
-0.16,0.02,0.97,-0.05,0.01,0.00,249
-0.16,0.02,0.97,-0.02,0.03,-0.02,249
-0.15,0.02,0.97,0.00,0.04,0.00,249
-0.16,0.02,0.97,-0.01,0.00,0.03,249
-0.16,0.02,0.97,-0.03,-0.02,0.05,249
-0.16,0.02,0.97,0.00,-0.01,0.03,249
-0.16,0.02,0.97,-0.01,0.01,-0.02,249
-0.15,0.02,0.97,0.00,-0.03,-0.05,249
-0.15,0.02,0.97,0.03,-0.05,-0.02,249
-0.16,0.02,0.97,-0.02,-0.03,-0.05,249
-0.16,0.02,0.97,-0.04,-0.02,-0.10,249
-0.16,0.02,0.97,0.01,-0.01,-0.05,249
-0.16,0.02,0.97,0.01,-0.03,0.05,249
-0.16,0.02,0.97,0.00,-0.05,0.06,250
-0.16,0.02,0.97,-0.03,-0.05,0.02,249
-0.16,0.02,0.97,-0.02,0.03,0.02,249
-0.16,0.02,0.97,0.02,0.04,-0.01,249
-0.16,0.02,0.97,0.02,-0.01,0.01,249
-0.16,0.02,0.97,0.01,-0.03,0.04,249
-0.15,0.02,0.97,-0.01,-0.02,0.03,249
-0.16,0.02,0.97,0.00,-0.01,0.05,249
-0.15,0.02,0.97,-0.03,-0.01,0.00,249
-0.15,0.02,0.97,-0.05,-0.02,-0.02,249
-0.16,0.02,0.97,-0.04,-0.00,-0.00,249
-0.16,0.02,0.97,-0.04,0.00,-0.02,249
-0.15,0.02,0.97,0.01,0.02,0.01,249
-0.15,0.02,0.97,-0.00,0.03,0.01,249
-0.16,0.02,0.97,-0.02,0.02,-0.03,249
-0.16,0.02,0.97,-0.01,0.02,-0.02,249
-0.16,0.02,0.97,-0.00,0.04,-0.00,249
-0.16,0.02,0.97,-0.02,0.06,-0.01,249
-0.16,0.02,0.97,-0.03,0.03,0.01,249
-0.16,0.02,0.97,-0.02,0.00,-0.03,249
-0.16,0.02,0.97,0.01,0.01,-0.02,249
-0.16,0.02,0.97,0.03,-0.03,0.02,249
-0.16,0.02,0.97,-0.00,-0.02,0.00,249
-0.16,0.02,0.97,-0.03,0.00,-0.02,249
-0.16,0.02,0.97,-0.03,0.03,-0.04,249
-0.16,0.02,0.97,-0.02,0.04,-0.00,249
-0.15,0.02,0.97,-0.02,0.01,0.00,249
-0.15,0.02,0.97,-0.00,-0.01,0.01,249
-0.16,0.02,0.97,-0.04,-0.01,0.06,249
-0.16,0.02,0.97,-0.05,0.00,0.03,249
-0.15,0.02,0.97,-0.04,-0.02,-0.03,250
-0.15,0.02,0.97,0.00,-0.03,-0.05,249
-0.16,0.02,0.97,0.01,-0.00,-0.01,249
-0.15,0.02,0.97,-0.01,0.02,0.03,249
-0.15,0.02,0.97,-0.02,0.00,-0.01,249
-0.16,0.02,0.97,-0.01,-0.02,-0.03,249
-0.16,0.02,0.97,-0.00,-0.04,-0.00,249
-0.16,0.02,0.97,-0.03,-0.03,-0.00,249
-0.16,0.02,0.97,-0.05,0.00,-0.02,249
-0.16,0.02,0.97,-0.02,0.04,0.02,249
-0.16,0.02,0.97,-0.00,0.04,0.03,249
-0.16,0.02,0.97,0.02,-0.01,-0.02,249
-0.15,0.02,0.97,0.04,-0.04,-0.04,249
-0.15,0.02,0.97,0.01,-0.05,-0.01,249
-0.16,0.02,0.97,-0.01,0.02,0.02,249
-0.16,0.02,0.97,-0.04,0.04,-0.01,249
-0.16,0.02,0.97,-0.04,0.01,-0.01,249
-0.16,0.02,0.97,0.01,0.00,0.03,249
-0.16,0.02,0.97,0.01,0.03,0.03,249
-0.16,0.02,0.97,-0.01,0.06,0.03,250
-0.16,0.02,0.97,0.01,0.05,0.05,249
-0.16,0.02,0.97,-0.00,0.02,0.02,249
-0.16,0.02,0.97,-0.01,0.02,0.02,249
-0.16,0.02,0.97,-0.03,0.01,0.04,249
-0.16,0.02,0.97,-0.03,-0.01,-0.01,249
-0.16,0.02,0.97,-0.02,0.00,-0.03,249
-0.16,0.02,0.97,0.02,-0.01,-0.02,249
-0.16,0.02,0.97,0.03,-0.01,-0.00,249
-0.16,0.02,0.97,0.03,-0.03,0.00,249
-0.16,0.02,0.97,0.04,-0.01,0.01,249
-0.16,0.02,0.97,-0.01,0.04,0.00,249
-0.16,0.02,0.97,-0.04,0.02,-0.03,249
-0.16,0.02,0.97,-0.01,-0.01,-0.03,249
-0.15,0.02,0.97,0.03,-0.04,-0.04,250
-0.16,0.02,0.97,0.01,-0.01,-0.04,249
-0.16,0.02,0.97,-0.04,-0.01,0.03,249
-0.16,0.02,0.97,-0.03,-0.01,0.04,249
-0.16,0.02,0.97,-0.00,0.01,0.01,249
-0.16,0.02,0.97,-0.06,0.00,0.03,249
-0.16,0.02,0.97,-0.04,-0.00,0.04,249
-0.16,0.02,0.97,-0.00,0.00,0.03,249
-0.16,0.02,0.97,-0.04,-0.01,0.00,249
-0.16,0.02,0.97,-0.01,-0.02,0.00,249
-0.16,0.02,0.97,-0.00,0.01,0.00,249
-0.16,0.02,0.97,-0.02,-0.01,0.00,249
-0.16,0.02,0.97,-0.04,-0.03,-0.01,249
-0.16,0.02,0.97,-0.04,0.02,0.00,249
-0.16,0.02,0.97,-0.03,0.02,0.03,249
-0.16,0.02,0.97,-0.00,-0.02,-0.01,249
-0.16,0.02,0.97,0.06,-0.03,-0.04,249
-0.16,0.02,0.97,0.06,-0.02,-0.01,249
-0.16,0.02,0.97,-0.00,0.01,0.01,249
-0.16,0.02,0.97,-0.00,0.03,0.02,250
-0.15,0.02,0.97,0.01,0.02,-0.01,249
-0.15,0.02,0.97,-0.01,-0.02,0.00,249
-0.16,0.02,0.97,-0.02,-0.02,0.00,249
-0.15,0.02,0.97,0.02,-0.01,0.00,249
-0.16,0.02,0.97,-0.00,-0.01,0.02,249
-0.16,0.02,0.97,-0.05,0.02,-0.00,249
-0.16,0.02,0.97,-0.03,0.00,-0.01,249
-0.16,0.02,0.97,0.04,-0.00,-0.01,249
-0.16,0.02,0.97,0.05,0.01,0.00,249
-0.16,0.02,0.97,0.02,0.00,0.00,249
-0.15,0.02,0.97,0.05,-0.01,0.00,249
-0.16,0.02,0.97,0.05,-0.00,0.02,249
-0.16,0.02,0.97,0.01,-0.03,-0.01,249
-0.16,0.02,0.97,-0.00,-0.05,-0.01,249
-0.16,0.02,0.97,-0.05,-0.03,-0.01,249
-0.16,0.02,0.97,-0.03,-0.01,-0.03,249
-0.15,0.02,0.97,0.00,-0.01,-0.01,249
-0.15,0.02,0.97,0.02,-0.01,0.03,250
-0.15,0.02,0.97,0.03,0.00,0.05,249
-0.15,0.02,0.97,0.01,-0.01,0.03,249
-0.16,0.02,0.97,0.01,-0.02,-0.01,249
-0.16,0.02,0.97,0.01,-0.01,-0.02,249
-0.16,0.02,0.97,0.02,-0.03,-0.03,249
-0.16,0.02,0.97,-0.00,-0.03,-0.06,249
-0.16,0.02,0.97,-0.03,0.02,-0.05,249
-0.15,0.02,0.97,-0.03,0.02,0.03,249
-0.15,0.02,0.97,0.01,0.04,0.03,249
-0.16,0.02,0.97,0.04,0.04,0.02,249
-0.16,0.02,0.97,0.03,0.04,0.02,249
-0.16,0.02,0.97,-0.02,0.04,-0.03,249
-0.16,0.02,0.97,-0.02,-0.01,-0.03,249
-0.16,0.02,0.97,0.03,-0.00,0.02,249
-0.16,0.02,0.97,0.04,0.00,0.03,249
-0.16,0.02,0.97,-0.01,-0.04,0.02,249
-0.16,0.02,0.97,-0.01,-0.01,0.06,249
-0.16,0.02,0.97,0.01,0.05,0.05,249
-0.16,0.02,0.97,0.01,0.03,-0.04,249
-0.16,0.02,0.97,0.01,-0.02,-0.05,249
-0.16,0.02,0.97,0.04,-0.04,0.01,250
-0.15,0.02,0.97,0.03,-0.02,0.05,249
-0.15,0.02,0.97,-0.04,-0.02,0.05,250
-0.16,0.02,0.97,-0.01,-0.01,0.02,249
-0.16,0.02,0.97,0.03,0.00,0.01,249
-0.16,0.02,0.97,0.05,-0.01,0.01,249
-0.16,0.02,0.97,0.03,0.00,0.02,249
-0.16,0.02,0.97,-0.00,0.00,0.04,249
-0.16,0.02,0.97,-0.03,-0.00,0.05,249
-0.15,0.02,0.97,-0.05,0.01,0.02,249
-0.15,0.02,0.97,-0.07,0.02,-0.02,249
-0.16,0.02,0.97,-0.04,0.04,0.01,249
-0.16,0.02,0.97,-0.00,0.00,0.05,249
-0.16,0.02,0.97,-0.03,-0.02,0.03,249
-0.16,0.02,0.97,-0.02,0.02,0.00,249
-0.16,0.02,0.97,0.03,0.02,-0.00,249
-0.16,0.02,0.97,0.04,-0.03,0.04,249
-0.16,0.02,0.97,0.02,-0.02,0.03,249
-0.16,0.02,0.97,-0.04,0.01,0.02,249
-0.16,0.02,0.97,-0.02,0.00,-0.01,249
-0.15,0.02,0.97,0.01,-0.01,-0.01,249
-0.15,0.02,0.97,-0.00,-0.03,0.02,249
-0.16,0.02,0.97,-0.02,-0.01,0.03,249
-0.16,0.02,0.97,-0.02,0.00,0.03,249
-0.16,0.02,0.97,-0.05,0.01,-0.03,249
-0.16,0.02,0.97,-0.04,0.01,0.03,249
-0.16,0.02,0.97,0.00,0.00,0.02,249
-0.16,0.02,0.97,0.03,0.01,-0.03,249
-0.16,0.02,0.97,0.02,0.04,-0.00,249
-0.16,0.02,0.97,-0.03,0.03,0.01,249
-0.16,0.02,0.97,-0.02,0.00,-0.00,250
-0.15,0.02,0.97,-0.03,0.00,-0.01,249
-0.15,0.02,0.97,-0.03,-0.01,-0.00,249
-0.16,0.02,0.97,-0.03,-0.02,-0.02,250
-0.16,0.02,0.97,-0.04,0.00,-0.02,249
-0.16,0.02,0.97,-0.04,0.01,0.02,249
-0.16,0.02,0.97,-0.03,-0.00,0.00,249
-0.15,0.02,0.97,0.01,-0.00,-0.02,249
-0.15,0.02,0.97,0.02,0.01,-0.00,249
-0.16,0.02,0.97,0.03,0.04,0.02,249
-0.16,0.02,0.97,0.04,0.04,0.02,249
-0.16,0.02,0.97,0.03,0.03,0.03,249
-0.16,0.02,0.97,-0.00,-0.01,-0.02,249
-0.15,0.02,0.97,-0.04,-0.01,-0.07,249
-0.15,0.02,0.97,-0.02,0.00,-0.05,249
-0.15,0.02,0.97,-0.00,0.01,-0.03,249
-0.16,0.02,0.97,0.02,0.04,0.04,249
-0.16,0.02,0.97,0.03,-0.01,0.05,249
-0.16,0.02,0.97,-0.01,-0.05,0.01,249
-0.15,0.02,0.97,0.01,0.00,0.01,249
-0.15,0.02,0.97,0.02,-0.00,-0.01,249
-0.16,0.02,0.97,0.00,-0.01,0.02,249
-0.16,0.02,0.97,-0.00,-0.02,0.03,249
-0.16,0.02,0.97,-0.04,-0.05,-0.01,249
-0.16,0.02,0.97,-0.05,-0.00,-0.02,249
-0.16,0.02,0.97,-0.03,0.05,0.02,249
-0.16,0.02,0.97,0.01,0.05,0.03,249
-0.16,0.02,0.97,0.04,0.02,0.06,249
-0.16,0.02,0.97,0.03,-0.02,0.03,249
-0.16,0.02,0.97,-0.03,-0.01,-0.00,249
-0.16,0.02,0.97,-0.02,0.02,0.02,249
-0.16,0.02,0.97,-0.02,0.05,0.04,249
-0.16,0.02,0.97,-0.01,0.02,0.04,249
-0.15,0.02,0.97,0.03,-0.03,0.00,249
-0.16,0.02,0.97,-0.00,-0.05,-0.02,249
-0.16,0.02,0.97,-0.04,-0.02,-0.01,249
-0.15,0.02,0.97,-0.03,-0.01,0.02,249
-0.15,0.02,0.97,0.00,-0.01,-0.00,249
-0.16,0.02,0.97,0.01,0.01,-0.03,249
-0.16,0.02,0.97,0.02,-0.01,-0.03,249
-0.16,0.02,0.97,0.05,-0.02,-0.00,249
-0.15,0.02,0.97,0.00,0.02,-0.00,249
-0.15,0.02,0.97,-0.01,0.03,-0.01,249
-0.15,0.02,0.97,0.01,0.03,0.02,250
-0.16,0.02,0.97,0.00,-0.03,0.01,249
-0.16,0.02,0.97,-0.00,-0.04,-0.01,249
-0.16,0.02,0.97,-0.04,-0.01,-0.02,249
-0.16,0.02,0.97,-0.04,-0.02,-0.01,249
-0.16,0.02,0.97,-0.03,-0.02,0.02,249
-0.16,0.02,0.97,-0.04,-0.00,0.03,249
-0.16,0.02,0.97,-0.00,-0.03,-0.02,249
-0.16,0.02,0.97,0.01,-0.03,-0.03,249
-0.16,0.02,0.97,-0.03,0.02,-0.02,249
-0.16,0.02,0.97,-0.01,0.02,-0.02,249
-0.16,0.02,0.97,-0.03,0.01,0.01,249
-0.16,0.02,0.97,-0.08,0.04,0.03,249
-0.16,0.02,0.97,-0.00,0.04,0.02,249
-0.16,0.02,0.97,0.01,-0.01,0.02,249
-0.16,0.02,0.97,0.01,-0.05,-0.01,249
-0.16,0.02,0.97,0.06,-0.02,0.01,249
-0.16,0.02,0.97,0.04,0.02,0.04,249
-0.16,0.02,0.97,-0.00,0.05,0.00,249
-0.15,0.02,0.97,-0.04,0.02,-0.02,249
-0.15,0.02,0.97,-0.00,-0.03,0.03,249
-0.15,0.02,0.97,0.03,-0.05,0.03,249
-0.15,0.02,0.97,0.01,-0.04,0.01,249
-0.15,0.02,0.97,-0.00,-0.01,0.01,249
-0.16,0.02,0.97,-0.03,-0.02,-0.02,249
-0.16,0.02,0.97,-0.03,-0.03,-0.05,249
-0.16,0.02,0.97,0.02,0.02,-0.02,249
-0.16,0.02,0.97,0.05,0.04,-0.02,249
-0.15,0.02,0.97,0.02,-0.03,-0.01,249
-0.16,0.02,0.97,-0.02,-0.01,0.03,249
-0.16,0.02,0.97,0.01,0.02,0.05,249
-0.16,0.02,0.97,0.06,-0.00,-0.01,249
-0.16,0.02,0.97,0.03,0.02,-0.02,249
-0.16,0.02,0.97,-0.03,0.00,-0.03,249
-0.16,0.02,0.97,-0.04,-0.00,-0.04,249
-0.16,0.02,0.97,-0.03,0.03,0.03,250
-0.16,0.02,0.97,-0.02,0.01,0.02,249
-0.16,0.02,0.97,0.00,-0.01,-0.03,249
-0.16,0.02,0.97,-0.00,-0.01,-0.02,249
-0.16,0.02,0.97,-0.00,0.00,-0.02,249
-0.16,0.02,0.97,-0.01,0.01,-0.00,249
-0.16,0.02,0.97,-0.04,-0.01,0.01,249
-0.16,0.02,0.97,0.01,-0.01,-0.02,250
-0.15,0.02,0.97,0.06,0.03,-0.00,249
-0.15,0.02,0.97,0.03,0.00,0.03,249
-0.16,0.02,0.97,-0.02,-0.03,0.03,249
-0.16,0.02,0.97,-0.03,-0.01,0.03,249
-0.16,0.02,0.97,-0.00,-0.00,0.03,249
-0.16,0.02,0.97,-0.00,-0.02,0.00,249
-0.16,0.02,0.97,-0.00,-0.03,-0.02,249
-0.16,0.02,0.97,0.01,-0.01,0.01,249
-0.16,0.02,0.97,-0.00,-0.00,0.02,249
-0.16,0.02,0.97,0.02,-0.03,-0.02,249
-0.16,0.02,0.97,0.05,-0.05,-0.00,249
-0.16,0.02,0.97,0.05,-0.01,0.01,249
-0.16,0.02,0.97,0.03,0.03,0.01,249
-0.16,0.02,0.97,-0.01,0.02,0.01,249
-0.16,0.02,0.97,-0.02,0.01,-0.01,250
-0.15,0.02,0.97,-0.03,-0.01,0.01,249
-0.15,0.02,0.97,-0.03,-0.03,-0.02,249
-0.16,0.02,0.97,-0.01,0.00,-0.01,250
-0.16,0.02,0.97,0.00,-0.01,-0.02,249
-0.15,0.02,0.97,0.04,0.01,-0.03,249
-0.15,0.02,0.97,0.02,0.05,-0.00,249
-0.15,0.02,0.97,-0.02,0.01,0.01,249
-0.15,0.02,0.97,0.01,-0.02,0.01,249
-0.16,0.02,0.97,0.03,-0.00,-0.02,249
-0.16,0.02,0.97,0.03,-0.02,-0.00,249
-0.16,0.02,0.97,0.03,-0.02,0.00,249
-0.16,0.02,0.97,0.02,-0.03,-0.03,249
-0.16,0.02,0.97,0.03,-0.02,0.00,249
-0.16,0.02,0.97,0.05,0.00,0.03,249
-0.15,0.02,0.97,0.01,-0.03,-0.00,249
-0.16,0.02,0.97,0.00,-0.04,-0.05,249
-0.16,0.02,0.97,0.01,-0.01,-0.05,249
-0.16,0.02,0.97,-0.02,0.00,-0.03,249
-0.16,0.02,0.97,-0.07,0.03,0.02,249
-0.16,0.02,0.97,-0.03,0.05,0.03,249
-0.16,0.02,0.97,0.03,-0.00,0.03,249
-0.16,0.02,0.97,0.06,-0.03,0.05,249
-0.16,0.02,0.97,0.05,0.02,0.04,249
-0.16,0.02,0.97,-0.00,0.04,0.03,249
-0.16,0.02,0.97,-0.01,0.04,0.03,249
-0.16,0.02,0.97,-0.01,0.01,0.01,249
-0.16,0.02,0.97,0.01,-0.05,-0.03,249
-0.16,0.02,0.97,0.04,-0.04,-0.04,249
-0.15,0.02,0.97,0.05,0.01,-0.00,249
-0.15,0.02,0.97,0.02,-0.01,0.01,249
-0.15,0.02,0.97,-0.00,-0.01,-0.01,249
-0.16,0.02,0.97,-0.00,0.01,-0.02,249
-0.16,0.02,0.97,-0.01,-0.03,-0.03,249
-0.15,0.02,0.97,-0.04,-0.02,-0.05,249
-0.15,0.02,0.97,-0.05,0.03,-0.00,249
-0.15,0.02,0.97,-0.04,0.01,0.05,249
-0.15,0.02,0.97,-0.00,-0.04,0.01,249
-0.16,0.02,0.97,0.02,-0.01,-0.02,249
-0.16,0.02,0.97,0.03,0.03,0.02,250
-0.15,0.02,0.97,-0.00,0.03,-0.00,249
-0.15,0.02,0.97,-0.02,0.03,-0.04,249
-0.15,0.02,0.97,-0.03,0.00,-0.02,249
-0.15,0.02,0.97,-0.00,-0.05,-0.00,249
-0.15,0.02,0.97,0.03,-0.08,0.03,249
-0.16,0.02,0.97,0.03,-0.04,0.06,249
-0.16,0.02,0.97,0.01,0.03,0.06,249
-0.16,0.02,0.97,-0.01,0.04,0.02,249
-0.15,0.02,0.97,0.01,0.01,-0.05,249
-0.15,0.02,0.97,-0.01,0.00,-0.05,249
-0.16,0.02,0.97,-0.00,0.01,-0.02,249
-0.16,0.02,0.97,0.03,0.02,-0.01,250
-0.16,0.02,0.97,0.05,0.00,0.00,249
-0.16,0.02,0.97,0.02,-0.02,0.01,249
-0.16,0.02,0.97,-0.02,0.00,-0.03,249
-0.16,0.02,0.97,-0.04,0.04,-0.03,249
-0.16,0.02,0.97,-0.04,0.04,-0.00,249
-0.16,0.02,0.97,0.01,0.00,-0.01,249
-0.16,0.02,0.97,0.01,0.00,-0.02,249
-0.16,0.02,0.97,0.03,-0.02,0.00,249
-0.16,0.02,0.97,0.02,-0.05,0.01,249
-0.15,0.02,0.97,-0.04,-0.01,-0.02,249
-0.16,0.02,0.97,0.00,0.00,0.02,249
-0.15,0.02,0.97,0.04,0.00,0.01,249
-0.15,0.02,0.97,0.01,-0.03,0.00,249
-0.16,0.02,0.97,-0.00,-0.01,0.03,249
-0.16,0.02,0.97,-0.02,0.02,0.01,249
-0.15,0.02,0.97,-0.00,-0.03,0.01,249
-0.15,0.02,0.97,0.03,-0.03,0.03,249
-0.16,0.02,0.97,0.03,0.02,0.01,249
-0.16,0.02,0.97,0.02,-0.00,0.01,249
-0.16,0.02,0.97,-0.02,-0.02,-0.02,249
-0.16,0.02,0.97,-0.02,0.01,-0.01,249
-0.15,0.02,0.97,0.01,-0.01,-0.02,249
-0.15,0.02,0.97,0.03,0.00,0.02,249
-0.16,0.02,0.97,0.01,0.01,0.05,249
-0.16,0.02,0.97,-0.07,-0.04,0.03,249
-0.15,0.02,0.97,-0.06,0.03,0.01,249
-0.15,0.02,0.97,-0.01,0.03,0.00,249
-0.16,0.02,0.97,0.03,-0.04,0.01,249
-0.16,0.02,0.97,0.05,-0.03,-0.01,249
-0.16,0.02,0.97,0.03,-0.01,-0.02,249
-0.15,0.02,0.97,-0.01,0.02,-0.01,250
-0.16,0.02,0.97,-0.02,0.03,0.03,249
-0.16,0.02,0.97,0.01,0.01,0.01,249
-0.16,0.02,0.97,0.06,-0.04,-0.05,250
-0.16,0.02,0.97,0.08,-0.06,-0.06,249
-0.15,0.02,0.97,0.04,-0.02,0.00,249
-0.15,0.02,0.97,-0.03,-0.00,0.00,249
-0.16,0.02,0.97,-0.01,-0.02,-0.03,249
-0.15,0.02,0.97,0.04,-0.05,-0.02,249
-0.16,0.02,0.97,0.04,-0.05,-0.02,249
-0.16,0.02,0.97,0.01,-0.00,-0.02,249
-0.16,0.02,0.97,0.02,0.02,-0.02,249
-0.16,0.02,0.97,0.03,0.01,0.02,249
-0.16,0.02,0.97,-0.02,0.02,0.01,249
-0.16,0.02,0.97,-0.07,0.02,-0.03,249
-0.16,0.02,0.97,-0.04,0.00,-0.03,249
-0.16,0.02,0.97,0.03,-0.02,-0.06,249
-0.16,0.02,0.97,0.03,-0.03,-0.03,249
-0.16,0.02,0.97,-0.01,0.01,-0.00,249
-0.16,0.02,0.97,-0.04,0.04,-0.00,249
-0.16,0.02,0.97,0.01,-0.01,0.02,249
-0.16,0.02,0.97,0.03,-0.05,0.00,250
-0.16,0.02,0.97,0.04,-0.04,0.02,249
-0.16,0.02,0.97,0.05,-0.05,0.03,249
-0.16,0.02,0.97,0.03,-0.05,0.05,249
-0.16,0.02,0.97,-0.03,-0.01,0.03,249
-0.16,0.02,0.97,-0.07,0.07,0.03,249
-0.16,0.02,0.97,-0.04,0.11,0.03,249
-0.16,0.02,0.97,-0.00,0.08,0.03,249
-0.16,0.02,0.97,0.04,0.02,0.04,249
-0.16,0.02,0.97,0.06,-0.03,0.02,249
-0.16,0.02,0.97,0.02,-0.04,-0.01,249
-0.15,0.02,0.97,-0.03,-0.01,-0.00,249
-0.16,0.02,0.97,0.01,0.04,-0.02,249
-0.15,0.02,0.97,0.05,0.02,-0.05,249
-0.16,0.02,0.97,-0.02,0.00,-0.05,249
-0.16,0.02,0.97,-0.08,0.03,-0.04,249
-0.16,0.02,0.97,-0.10,0.05,-0.02,249
-0.16,0.02,0.97,-0.06,0.08,0.03,249
-0.16,0.02,0.97,-0.04,0.09,0.05,249
-0.16,0.02,0.97,0.01,0.04,0.01,249
-0.16,0.02,0.97,0.06,-0.05,-0.03,249
-0.15,0.02,0.97,0.04,-0.05,-0.01,249
-0.15,0.02,0.97,0.04,-0.01,0.01,249
-0.16,0.02,0.97,0.03,-0.00,0.01,249
-0.16,0.02,0.97,0.00,-0.01,-0.01,249
-0.16,0.02,0.97,-0.04,-0.01,-0.01,249
-0.16,0.02,0.97,-0.04,0.01,0.05,249
-0.15,0.02,0.97,0.02,-0.00,0.03,249
-0.15,0.02,0.97,0.05,-0.04,-0.00,249
-0.16,0.02,0.97,0.05,-0.03,0.02,249
-0.15,0.02,0.97,0.01,0.00,0.01,249
-0.16,0.02,0.97,-0.06,0.04,-0.00,249
-0.16,0.02,0.97,-0.04,0.04,0.03,249
-0.15,0.02,0.97,-0.01,-0.03,0.02,249
-0.16,0.02,0.97,0.02,-0.08,-0.00,249
-0.16,0.02,0.97,0.07,-0.06,0.00,249
-0.16,0.02,0.97,0.02,-0.01,0.01,249
-0.16,0.02,0.97,-0.04,0.04,0.01,249
-0.16,0.02,0.97,-0.02,0.03,-0.01,249
-0.16,0.02,0.97,0.04,0.01,-0.00,249
-0.16,0.02,0.97,0.06,-0.01,-0.00,249
-0.16,0.02,0.97,0.03,-0.03,-0.01,249
-0.16,0.02,0.97,-0.00,-0.03,-0.02,249
-0.16,0.02,0.97,0.01,-0.03,-0.03,249
-0.16,0.02,0.97,0.04,-0.01,0.02,249
-0.15,0.02,0.97,0.02,-0.01,0.02,249
-0.16,0.02,0.97,-0.02,0.01,-0.07,249
-0.16,0.02,0.97,-0.00,0.06,-0.07,249
-0.16,0.02,0.97,0.02,0.04,-0.05,249
-0.16,0.02,0.97,0.01,-0.02,-0.05,249
-0.16,0.02,0.97,0.02,-0.02,-0.02,249
-0.15,0.02,0.97,0.04,-0.02,0.02,249
-0.16,0.02,0.97,0.02,-0.03,0.00,249
-0.16,0.02,0.97,0.01,0.00,-0.01,249
-0.16,0.02,0.97,0.03,0.01,0.00,249
-0.16,0.02,0.97,0.04,-0.04,0.03,249
-0.16,0.02,0.97,-0.00,-0.06,0.05,249
-0.16,0.02,0.97,-0.02,-0.05,0.02,249
-0.16,0.02,0.97,0.02,-0.01,0.00,249
-0.16,0.02,0.97,-0.01,0.01,-0.01,249
-0.15,0.02,0.97,-0.05,0.02,-0.05,249
-0.15,0.02,0.97,-0.00,0.04,-0.04,249
-0.16,0.02,0.97,-0.00,0.01,-0.03,249
-0.16,0.02,0.97,-0.02,-0.01,-0.02,249
-0.16,0.02,0.97,0.03,-0.04,0.03,249
-0.16,0.02,0.97,0.02,-0.03,0.06,249
-0.16,0.02,0.98,-0.04,-0.00,0.03,249
-0.16,0.02,0.98,-0.03,0.00,-0.01,249
-0.16,0.02,0.97,0.02,-0.05,-0.03,249
-0.15,0.02,0.97,-0.00,-0.02,-0.02,249
-0.15,0.02,0.97,-0.02,0.03,-0.01,249
-0.16,0.02,0.97,0.02,-0.01,-0.02,249
-0.16,0.02,0.97,0.02,-0.05,0.01,250
-0.16,0.02,0.97,-0.00,-0.04,0.02,249
-0.16,0.02,0.97,0.00,-0.01,-0.01,250
-0.15,0.02,0.97,-0.01,-0.00,0.02,249
-0.15,0.02,0.97,-0.02,-0.01,0.02,249
-0.16,0.02,0.97,0.01,-0.02,-0.01,249
-0.16,0.02,0.97,-0.00,-0.01,-0.02,249
-0.16,0.02,0.97,-0.04,0.04,-0.00,250
-0.16,0.02,0.97,-0.00,0.04,0.02,249
-0.16,0.02,0.97,0.06,-0.03,0.01,249
-0.16,0.02,0.97,0.00,-0.05,0.01,249
-0.16,0.02,0.97,-0.04,-0.02,0.02,249
-0.15,0.02,0.97,-0.00,0.03,0.02,249
-0.15,0.02,0.97,0.01,0.03,0.03,249
-0.15,0.02,0.97,0.03,-0.05,0.04,249
-0.15,0.02,0.97,-0.00,-0.06,-0.01,249
-0.16,0.02,0.97,-0.07,0.02,-0.02,249
-0.16,0.02,0.97,-0.07,0.05,0.01,249
-0.16,0.02,0.97,-0.01,0.03,-0.02,249
-0.15,0.02,0.97,0.04,-0.01,-0.05,249
-0.16,0.02,0.97,0.04,0.00,-0.05,249
-0.16,0.02,0.97,0.04,-0.01,-0.01,249
-0.15,0.02,0.97,0.03,-0.03,-0.01,249
-0.16,0.02,0.97,-0.00,0.02,-0.02,249
-0.16,0.02,0.97,0.02,0.04,0.01,249
-0.15,0.02,0.97,0.03,0.03,0.02,249
-0.16,0.02,0.97,0.01,0.01,0.03,249
-0.16,0.02,0.97,0.06,0.02,-0.00,249
-0.15,0.02,0.97,0.08,0.04,0.03,249
-0.16,0.02,0.97,0.01,-0.00,0.05,249
-0.16,0.02,0.97,0.03,0.00,0.03,249
-0.16,0.02,0.97,0.02,-0.01,0.03,249
-0.16,0.02,0.97,-0.01,0.01,-0.02,249
-0.16,0.02,0.97,-0.02,0.00,-0.03,249
-0.16,0.02,0.97,-0.01,-0.01,-0.02,249
-0.16,0.02,0.97,0.02,-0.01,0.02,249
-0.16,0.02,0.97,0.04,0.01,0.04,250
-0.16,0.02,0.97,0.01,0.03,0.01,249
-0.16,0.02,0.97,-0.04,0.04,0.01,249
-0.16,0.02,0.97,-0.01,0.03,0.03,249
-0.16,0.02,0.97,0.03,-0.01,0.03,249
-0.16,0.02,0.97,0.01,-0.03,0.01,249
-0.16,0.02,0.97,0.03,-0.06,-0.02,249
-0.15,0.02,0.97,0.04,-0.03,-0.01,249
-0.16,0.02,0.97,0.00,0.01,0.05,250
-0.16,0.02,0.97,0.01,0.02,0.06,249
-0.16,0.02,0.97,0.02,0.01,0.03,249
-0.15,0.02,0.97,-0.01,-0.01,0.02,249
-0.15,0.02,0.97,-0.05,-0.02,0.02,249
-0.16,0.02,0.97,-0.01,0.01,0.03,249
-0.16,0.02,0.97,0.01,-0.01,-0.02,249
-0.15,0.02,0.97,0.01,-0.01,-0.06,249
-0.16,0.02,0.97,0.02,-0.00,-0.04,249
-0.15,0.02,0.97,-0.01,-0.05,-0.02,249
-0.15,0.02,0.97,0.01,-0.05,-0.03,249
-0.16,0.02,0.97,0.03,-0.02,-0.03,249
-0.16,0.02,0.97,0.02,-0.01,-0.00,249
-0.16,0.02,0.97,-0.01,0.02,0.01,249
-0.16,0.02,0.97,0.01,0.02,0.04,249
-0.16,0.02,0.97,0.03,0.00,0.05,249
-0.16,0.02,0.97,0.02,-0.03,0.03,249
-0.16,0.02,0.97,-0.01,-0.07,-0.00,249
-0.15,0.02,0.97,-0.01,-0.06,-0.02,249
-0.15,0.02,0.97,0.01,0.02,-0.01,249
-0.16,0.02,0.97,-0.01,0.07,-0.02,249
-0.16,0.02,0.97,0.01,0.04,0.01,250
-0.16,0.02,0.97,0.05,-0.00,0.02,249
-0.16,0.02,0.97,0.03,-0.03,0.03,249
-0.16,0.02,0.97,-0.01,-0.04,0.04,249
-0.16,0.02,0.97,-0.03,0.01,0.03,249
-0.16,0.02,0.97,-0.01,0.04,0.01,249
-0.16,0.02,0.97,0.01,0.01,0.01,249
-0.15,0.02,0.97,0.06,0.01,-0.00,249
-0.15,0.02,0.97,0.02,-0.01,0.01,249
-0.16,0.02,0.97,-0.02,0.01,0.08,249
-0.16,0.02,0.97,-0.01,0.02,0.06,249
-0.16,0.02,0.97,-0.02,-0.02,0.04,249
-0.16,0.02,0.97,-0.02,-0.01,0.03,249
-0.16,0.02,0.97,-0.01,0.04,0.00,249
-0.15,0.02,0.97,0.01,0.01,-0.05,249
-0.15,0.02,0.97,0.01,-0.02,-0.07,249
-0.15,0.02,0.97,0.01,-0.02,-0.02,249
-0.16,0.02,0.97,0.04,-0.03,0.01,249
-0.16,0.02,0.97,0.06,-0.01,0.01,249
-0.15,0.02,0.97,0.02,0.04,0.01,249
-0.15,0.02,0.97,-0.02,0.02,0.02,249
-0.16,0.02,0.97,-0.01,0.02,-0.03,250
-0.16,0.02,0.97,0.01,0.01,-0.04,249
-0.16,0.02,0.97,0.01,-0.05,0.00,249
-0.16,0.02,0.97,-0.01,-0.06,-0.03,249
-0.16,0.02,0.97,-0.01,-0.01,-0.08,249
-0.16,0.02,0.97,-0.01,0.04,-0.07,249
-0.16,0.02,0.97,0.01,-0.01,-0.02,249
-0.16,0.02,0.97,0.06,-0.04,0.01,249
-0.16,0.02,0.97,0.07,-0.01,-0.01,249
-0.16,0.02,0.97,0.03,0.01,-0.01,249
-0.16,0.02,0.97,0.02,0.00,-0.00,249
-0.16,0.02,0.97,0.03,-0.00,-0.00,249
-0.16,0.02,0.97,-0.02,0.01,0.02,249
-0.16,0.02,0.97,-0.01,0.02,0.00,249
-0.16,0.02,0.97,-0.01,0.01,-0.03,249
-0.16,0.02,0.97,-0.02,0.02,-0.03,249
-0.16,0.02,0.97,0.01,0.00,0.02,249
-0.16,0.02,0.97,0.02,-0.02,0.07,249
-0.16,0.02,0.97,-0.00,-0.01,0.06,249
-0.16,0.02,0.97,-0.02,0.00,0.05,249
-0.16,0.02,0.97,-0.01,0.01,0.02,249
-0.16,0.02,0.97,-0.00,0.01,-0.04,249
-0.16,0.02,0.97,0.03,0.02,-0.03,249
-0.16,0.02,0.97,0.02,-0.02,-0.05,249
-0.15,0.02,0.97,0.03,-0.05,-0.05,249
-0.15,0.02,0.97,0.04,-0.04,0.02,249
-0.16,0.02,0.97,0.04,-0.04,0.05,249
-0.16,0.02,0.97,0.05,-0.01,0.05,249
-0.15,0.02,0.97,-0.01,-0.01,-0.00,249
-0.15,0.02,0.97,-0.03,-0.00,-0.00,249
-0.15,0.02,0.97,-0.03,0.02,0.02,249
-0.16,0.02,0.97,-0.03,0.04,-0.01,249
-0.16,0.02,0.97,0.01,-0.01,0.01,249
-0.15,0.02,0.97,0.03,-0.03,0.05,249
-0.16,0.02,0.97,-0.01,0.03,-0.01,249
-0.16,0.02,0.97,-0.02,0.07,-0.05,249
-0.15,0.02,0.97,0.03,0.03,-0.02,249
-0.16,0.02,0.97,0.05,-0.02,-0.02,249
-0.16,0.02,0.97,0.05,-0.02,-0.02,249
-0.16,0.02,0.97,0.01,-0.02,-0.01,249
-0.16,0.02,0.97,-0.00,-0.03,0.04,249
-0.16,0.02,0.97,0.00,-0.02,-0.00,249
-0.15,0.02,0.97,-0.01,0.01,-0.02,249
-0.15,0.02,0.97,-0.01,-0.01,0.00,249
-0.15,0.02,0.97,-0.05,-0.01,-0.01,249
-0.16,0.02,0.97,-0.04,-0.01,0.04,250
-0.15,0.02,0.97,-0.02,-0.01,0.05,249
-0.15,0.02,0.97,-0.04,-0.00,0.03,249
-0.15,0.02,0.97,-0.01,0.01,0.02,249
-0.16,0.02,0.97,0.04,0.00,-0.00,250
-0.16,0.02,0.97,0.01,-0.02,-0.00,249
-0.16,0.02,0.97,-0.04,-0.01,-0.01,249
-0.16,0.02,0.97,-0.03,-0.00,-0.03,249
-0.16,0.02,0.97,0.02,0.02,0.02,249
-0.16,0.02,0.97,0.02,0.03,0.04,249
-0.16,0.02,0.97,-0.01,0.02,-0.03,249
-0.16,0.02,0.97,-0.01,0.01,-0.04,250
-0.16,0.02,0.97,0.01,0.04,0.01,249
-0.16,0.02,0.97,0.02,0.02,-0.02,250
-0.16,0.02,0.97,0.06,-0.03,-0.03,249
-0.16,0.02,0.97,0.05,-0.00,-0.01,249
-0.15,0.02,0.97,-0.01,-0.03,0.01,249
-0.15,0.02,0.97,-0.02,-0.05,0.03,249
-0.16,0.02,0.97,-0.01,-0.01,0.01,249
-0.16,0.02,0.97,-0.00,-0.02,0.00,249
-0.16,0.02,0.97,0.01,-0.02,0.01,249
-0.15,0.02,0.97,0.03,0.02,0.03,250
-0.15,0.02,0.97,0.01,0.01,0.02,249
-0.16,0.02,0.97,-0.01,0.00,-0.03,249
-0.16,0.02,0.97,-0.01,0.01,-0.00,249
-0.16,0.02,0.97,0.01,-0.01,0.03,249
-0.16,0.02,0.97,0.04,-0.01,0.02,249
-0.16,0.02,0.97,-0.01,0.01,0.02,249
-0.16,0.02,0.97,-0.03,0.02,-0.01,249
-0.16,0.02,0.97,0.03,0.01,-0.00,249
-0.16,0.02,0.97,0.04,0.03,0.03,249
-0.16,0.02,0.97,-0.01,0.02,0.02,249
-0.16,0.02,0.97,-0.01,0.02,-0.02,249
-0.16,0.02,0.97,0.01,0.02,-0.05,249
-0.16,0.02,0.97,0.04,-0.01,-0.03,249
-0.16,0.02,0.97,0.05,-0.01,-0.01,249
-0.16,0.02,0.97,0.03,-0.00,-0.03,249
-0.16,0.02,0.97,-0.00,-0.02,-0.00,249
-0.16,0.02,0.97,-0.02,-0.04,-0.01,249
-0.15,0.02,0.97,0.01,-0.03,-0.01,249
-0.15,0.02,0.97,0.01,-0.03,-0.03,249
-0.15,0.02,0.97,-0.02,-0.03,-0.03,249
-0.16,0.02,0.97,-0.06,0.01,0.01,249
-0.16,0.02,0.97,-0.06,0.02,0.01,249
-0.15,0.02,0.97,-0.03,0.01,0.01,250
-0.16,0.02,0.97,0.01,-0.00,0.01,249
-0.16,0.02,0.97,0.04,-0.05,0.00,249
-0.16,0.02,0.97,0.02,-0.04,-0.03,249
-0.15,0.02,0.97,-0.05,0.01,-0.02,249
-0.15,0.02,0.97,-0.06,0.02,0.01,249
-0.15,0.02,0.97,0.04,0.01,-0.02,249
-0.15,0.02,0.97,0.03,0.01,-0.04,249
-0.16,0.02,0.97,-0.00,-0.03,-0.05,249
-0.16,0.02,0.97,0.04,-0.01,0.00,249
-0.16,0.02,0.97,0.01,0.04,0.02,249
-0.16,0.02,0.97,-0.02,0.02,0.01,250
-0.16,0.02,0.97,-0.00,0.02,0.02,249
-0.16,0.02,0.97,-0.02,0.05,-0.02,249
-0.16,0.02,0.97,-0.04,0.04,-0.01,249
-0.16,0.02,0.97,-0.03,0.01,0.05,249
-0.16,0.02,0.97,-0.04,0.02,0.05,249
-0.16,0.02,0.97,-0.00,0.01,0.03,249
-0.16,0.02,0.97,0.03,-0.01,0.00,249
-0.16,0.02,0.97,0.03,0.01,0.01,249
-0.16,0.02,0.97,0.00,-0.01,-0.02,249
-0.15,0.02,0.97,0.02,-0.03,-0.03,249
-0.16,0.02,0.97,0.04,-0.03,-0.00,249
-0.16,0.02,0.97,-0.02,-0.00,0.01,249
-0.16,0.02,0.97,-0.03,0.05,-0.00,249
-0.15,0.02,0.97,-0.00,0.07,-0.01,249
-0.16,0.02,0.97,0.02,0.05,0.02,249
-0.16,0.02,0.97,0.04,-0.01,-0.02,249
-0.16,0.02,0.97,0.02,-0.01,-0.04,249
-0.16,0.02,0.97,-0.01,-0.02,-0.03,250
-0.16,0.02,0.97,-0.04,-0.05,-0.05,249
-0.15,0.02,0.97,-0.04,-0.03,-0.06,249
-0.16,0.02,0.97,-0.03,-0.01,-0.04,249
-0.16,0.02,0.97,0.01,-0.01,-0.00,249
-0.16,0.02,0.97,0.03,-0.03,0.03,249
-0.16,0.02,0.97,0.01,-0.04,0.03,249
-0.16,0.02,0.97,-0.00,-0.04,-0.01,249
-0.16,0.02,0.97,0.01,0.01,-0.03,249
-0.15,0.02,0.97,0.00,0.02,-0.02,249
-0.16,0.02,0.97,-0.02,-0.03,0.01,249
-0.16,0.02,0.97,-0.03,-0.01,0.04,249
-0.16,0.02,0.97,0.01,0.04,0.03,249
-0.15,0.02,0.97,0.02,0.04,-0.00,249
-0.16,0.02,0.97,0.02,0.02,-0.03,249
-0.16,0.02,0.97,0.04,0.02,-0.01,249
-0.16,0.02,0.97,0.04,0.02,0.01,249
-0.16,0.02,0.97,0.02,0.01,-0.01,249
-0.16,0.02,0.97,-0.01,-0.01,-0.01,249
-0.16,0.02,0.97,0.01,-0.02,0.02,249
-0.16,0.02,0.97,0.01,-0.01,0.00,249
-0.16,0.02,0.97,-0.00,-0.03,-0.03,249
-0.16,0.02,0.97,0.01,-0.06,-0.01,249
-0.16,0.02,0.97,0.03,-0.06,0.01,249
-0.16,0.02,0.97,0.07,-0.01,0.02,249
-0.16,0.02,0.97,0.04,0.03,0.02,249
-0.16,0.02,0.97,-0.01,0.04,0.01,249
-0.16,0.02,0.97,-0.01,0.03,-0.01,249
-0.16,0.02,0.97,-0.01,0.04,-0.01,249
-0.16,0.02,0.97,0.01,0.04,0.01,249
-0.16,0.02,0.97,0.03,0.02,-0.03,249
-0.16,0.02,0.97,0.01,-0.02,-0.01,249
-0.16,0.02,0.97,-0.03,-0.04,0.06,249
-0.16,0.02,0.97,-0.03,0.02,0.03,249
-0.16,0.02,0.97,-0.01,0.02,-0.02,249
-0.16,0.02,0.97,0.03,0.01,0.00,249
-0.16,0.02,0.97,0.04,0.03,0.03,249
-0.16,0.02,0.97,0.02,0.04,0.03,249
-0.16,0.02,0.97,0.01,0.03,-0.02,249
-0.16,0.02,0.97,-0.01,-0.00,0.03,249
-0.16,0.02,0.97,-0.04,-0.03,0.08,249
-0.16,0.02,0.97,-0.01,-0.03,-0.00,249
-0.16,0.02,0.97,-0.00,-0.01,-0.03,249
-0.15,0.02,0.97,0.01,-0.02,0.01,249
-0.16,0.02,0.97,-0.01,-0.00,0.04,249
-0.16,0.02,0.97,-0.02,0.02,0.01,249
-0.16,0.02,0.97,0.01,0.01,-0.05,249
-0.16,0.02,0.97,0.01,0.00,-0.05,249
-0.16,0.02,0.97,0.01,0.02,-0.01,249
-0.16,0.02,0.97,0.01,0.04,-0.01,249
-0.16,0.02,0.97,0.02,-0.01,-0.02,249
-0.16,0.02,0.97,0.05,-0.01,0.04,249
-0.16,0.02,0.97,0.03,-0.03,0.09,249
-0.16,0.02,0.97,0.01,-0.01,0.05,249
-0.16,0.02,0.97,-0.01,0.04,-0.02,249
-0.15,0.02,0.97,-0.02,0.01,-0.01,249
-0.16,0.02,0.97,0.02,0.01,-0.03,249
-0.16,0.02,0.97,0.02,-0.04,-0.02,249
-0.16,0.02,0.97,0.02,-0.05,0.05,249
-0.16,0.02,0.97,0.08,-0.02,0.03,249
-0.16,0.02,0.97,0.07,0.01,-0.02,249
-0.16,0.02,0.97,0.02,0.02,-0.00,249
-0.16,0.02,0.97,0.02,0.02,-0.02,249
-0.16,0.02,0.97,0.06,0.03,0.00,249
-0.16,0.02,0.97,0.03,0.02,0.06,249
-0.16,0.02,0.97,-0.01,0.01,0.04,249
-0.16,0.02,0.97,-0.00,-0.02,-0.00,249
-0.16,0.02,0.97,-0.01,-0.03,0.03,249
-0.16,0.02,0.97,-0.00,0.01,0.01,249
-0.16,0.02,0.97,0.01,0.04,-0.04,249
-0.16,0.02,0.97,-0.03,0.02,-0.05,249
-0.15,0.02,0.97,-0.03,-0.00,-0.02,249
-0.15,0.02,0.97,-0.00,-0.01,0.01,249
-0.15,0.02,0.97,0.04,-0.02,-0.00,249
-0.15,0.02,0.97,0.02,-0.02,-0.02,249
-0.15,0.02,0.97,0.01,-0.01,-0.05,249
-0.16,0.02,0.97,0.03,0.03,-0.05,249
-0.16,0.02,0.97,0.04,0.05,-0.00,249
-0.16,0.02,0.97,0.03,0.01,0.03,249
-0.16,0.02,0.97,-0.02,-0.01,0.03,249
-0.15,0.02,0.97,-0.03,0.00,0.05,250
-0.15,0.02,0.97,-0.01,0.01,0.06,249
-0.15,0.02,0.97,-0.04,-0.01,0.01,249
-0.16,0.02,0.97,-0.03,-0.04,-0.01,249
-0.16,0.02,0.97,-0.04,0.01,-0.01,249
-0.16,0.02,0.97,-0.09,0.04,-0.01,249
-0.15,0.02,0.97,-0.05,0.04,0.01,249
-0.15,0.02,0.97,-0.00,0.02,0.05,249
-0.16,0.02,0.97,-0.02,-0.05,0.03,249
-0.16,0.02,0.97,-0.04,-0.04,-0.01,249
-0.16,0.02,0.97,-0.04,0.01,-0.04,249
-0.16,0.02,0.97,-0.03,0.01,-0.02,249
-0.15,0.02,0.97,0.01,0.02,-0.00,249
-0.16,0.02,0.97,0.03,0.01,-0.02,249
-0.16,0.02,0.97,-0.01,-0.05,0.01,249
-0.16,0.02,0.97,-0.04,-0.04,0.01,249
-0.16,0.02,0.97,-0.03,0.04,0.04,249
-0.15,0.02,0.97,-0.02,0.04,0.05,249
-0.16,0.02,0.97,-0.03,0.01,0.02,249
-0.16,0.02,0.97,0.02,0.02,0.01,249
-0.15,0.02,0.97,0.04,0.02,0.01,249
-0.15,0.02,0.97,-0.02,-0.01,0.05,249
-0.16,0.02,0.97,-0.02,-0.02,0.03,249
-0.15,0.02,0.97,-0.00,0.02,-0.01,249
-0.16,0.02,0.97,-0.01,0.04,-0.01,249
-0.16,0.02,0.97,-0.01,0.03,0.01,249
-0.15,0.02,0.97,-0.02,0.01,-0.01,249
-0.16,0.02,0.97,0.04,0.03,-0.02,249
-0.16,0.02,0.97,0.04,0.02,-0.02,249
-0.16,0.02,0.97,-0.01,0.02,0.01,249
-0.15,0.02,0.97,0.01,0.01,0.05,249
-0.16,0.02,0.97,0.02,-0.00,0.07,249
-0.16,0.02,0.97,-0.00,-0.01,0.05,249
-0.16,0.02,0.97,-0.02,0.01,0.03,249
-0.16,0.02,0.97,-0.02,0.02,0.02,249
-0.16,0.02,0.97,-0.02,0.02,0.01,249
-0.16,0.02,0.97,-0.03,0.02,0.03,249
-0.15,0.02,0.97,-0.03,-0.01,0.04,249
-0.15,0.02,0.97,-0.02,0.00,-0.01,249
-0.16,0.02,0.97,-0.00,0.03,-0.04,249
-0.16,0.02,0.97,-0.01,0.02,-0.02,249
-0.15,0.02,0.97,-0.01,0.04,-0.05,249
-0.15,0.02,0.97,0.00,0.04,-0.03,249
-0.15,0.02,0.97,0.02,-0.01,-0.04,249
-0.15,0.02,0.97,0.03,-0.03,-0.02,249
-0.16,0.02,0.97,-0.01,0.00,0.02,249
-0.16,0.02,0.97,-0.04,0.04,-0.00,249
-0.16,0.02,0.97,-0.00,0.05,-0.01,249
-0.16,0.02,0.97,0.02,0.02,0.03,249
-0.16,0.02,0.97,0.02,0.00,0.03,249
-0.16,0.02,0.97,0.03,0.02,0.01,249
-0.16,0.02,0.97,-0.02,0.04,0.02,249
-0.15,0.02,0.97,-0.05,0.04,0.05,249
-0.15,0.02,0.97,-0.00,0.03,0.06,249
-0.16,0.02,0.97,0.05,-0.02,0.01,249
-0.16,0.02,0.97,0.03,-0.03,-0.04,249
-0.15,0.02,0.97,-0.02,-0.01,-0.04,249
-0.15,0.02,0.97,-0.02,0.02,-0.00,249
-0.15,0.02,0.97,-0.01,0.05,0.01,249
-0.15,0.02,0.97,-0.02,0.02,0.07,249
-0.16,0.02,0.97,-0.01,-0.01,0.05,249
-0.16,0.02,0.97,-0.01,0.02,-0.04,249
-0.15,0.02,0.97,-0.04,0.00,-0.04,249
-0.16,0.02,0.97,-0.02,0.02,-0.02,249
-0.16,0.02,0.97,0.01,0.04,0.02,249
-0.16,0.02,0.97,0.00,-0.01,-0.01,249
-0.16,0.02,0.97,0.03,0.01,-0.03,249
-0.15,0.02,0.97,0.01,0.02,0.01,249
-0.15,0.02,0.97,-0.04,0.03,0.04,249
-0.16,0.02,0.97,-0.06,0.04,0.02,249
-0.16,0.02,0.97,0.03,-0.03,-0.00,249
-0.16,0.02,0.97,0.07,-0.01,-0.01,249
-0.16,0.02,0.97,0.00,0.03,-0.01,249
-0.16,0.02,0.97,0.01,0.03,-0.02,249
-0.16,0.02,0.97,0.01,0.02,-0.05,249
-0.16,0.02,0.97,-0.06,-0.01,-0.02,249
-0.15,0.02,0.97,-0.03,-0.04,0.02,249
-0.16,0.02,0.97,0.01,-0.02,-0.01,249
-0.16,0.02,0.97,0.01,0.04,-0.04,249
-0.16,0.02,0.97,0.01,0.07,0.01,249
-0.15,0.02,0.97,-0.02,0.01,0.04,249
-0.15,0.02,0.97,0.01,-0.05,-0.01,249
-0.16,0.02,0.97,0.05,-0.03,-0.02,249
-0.16,0.02,0.97,0.03,0.00,0.02,249
-0.15,0.02,0.97,0.01,0.03,-0.00,249
-0.16,0.02,0.97,0.02,0.01,-0.02,250
-0.16,0.02,0.97,0.05,-0.01,0.03,249
-0.16,0.02,0.97,0.05,0.02,0.03,249
-0.16,0.02,0.97,0.02,0.02,-0.02,249
-0.16,0.02,0.97,0.01,0.04,0.03,249
-0.16,0.02,0.97,0.01,0.02,0.03,249
-0.16,0.02,0.97,0.01,-0.01,-0.02,249
-0.16,0.02,0.97,-0.01,0.02,-0.02,249
-0.16,0.02,0.97,-0.03,0.03,-0.03,249
-0.16,0.02,0.97,-0.04,0.03,-0.00,249
-0.16,0.02,0.97,-0.02,0.02,-0.02,249
-0.16,0.02,0.97,-0.04,-0.01,-0.03,249
-0.16,0.02,0.97,-0.04,-0.03,0.03,249
-0.16,0.02,0.97,-0.03,-0.00,0.00,249
-0.15,0.02,0.97,-0.04,0.04,-0.03,249
-0.16,0.02,0.97,-0.01,0.00,-0.00,249
-0.16,0.02,0.97,0.04,-0.00,0.06,249
-0.15,0.02,0.97,0.05,0.02,0.10,249
-0.16,0.02,0.97,-0.03,-0.00,0.05,249
-0.16,0.02,0.97,-0.07,0.01,-0.01,249
-0.15,0.02,0.97,-0.02,-0.01,-0.03,249
-0.15,0.02,0.97,0.02,-0.04,-0.03,249
-0.16,0.02,0.97,-0.01,-0.03,-0.01,249
-0.16,0.02,0.97,-0.03,-0.01,-0.00,250
-0.16,0.02,0.97,-0.01,-0.04,0.00,249
-0.16,0.02,0.97,-0.01,-0.01,0.02,249
-0.15,0.02,0.97,0.00,-0.00,0.04,249
-0.15,0.02,0.97,0.02,0.00,-0.01,249
-0.15,0.02,0.97,0.01,0.04,-0.05,249
-0.15,0.02,0.97,-0.01,0.05,-0.00,249
-0.15,0.02,0.97,-0.01,0.07,0.03,249
-0.16,0.02,0.97,0.02,0.03,0.01,249
-0.16,0.02,0.97,0.03,-0.01,0.03,249
-0.16,0.02,0.97,0.02,-0.01,0.05,249
-0.16,0.02,0.97,-0.02,-0.02,-0.00,249
-0.16,0.02,0.97,-0.02,-0.01,-0.01,249
-0.16,0.02,0.97,0.01,0.01,0.03,249
-0.16,0.02,0.97,-0.01,-0.00,-0.01,249
-0.16,0.02,0.97,-0.00,-0.03,-0.02,249
-0.15,0.02,0.97,-0.02,-0.01,0.03,249
-0.16,0.02,0.97,-0.01,0.03,0.03,249
-0.16,0.02,0.97,0.02,0.04,0.01,249
-0.16,0.02,0.97,-0.01,0.04,-0.00,249
-0.16,0.02,0.97,-0.02,0.03,0.01,249
-0.15,0.02,0.97,-0.01,0.02,0.01,249
-0.15,0.02,0.97,0.01,0.01,0.01,249
-0.15,0.02,0.97,0.03,0.02,0.01,249
-0.15,0.02,0.97,0.02,-0.00,0.03,249
-0.15,0.02,0.97,0.03,0.01,-0.00,249
-0.16,0.02,0.97,0.05,0.01,-0.02,249
-0.16,0.02,0.97,-0.00,-0.02,-0.00,250
-0.16,0.02,0.97,-0.02,-0.01,-0.02,250
-0.16,0.02,0.97,0.02,0.00,-0.03,249
-0.15,0.02,0.97,0.04,-0.03,-0.05,249
-0.15,0.02,0.97,0.02,-0.04,-0.02,249
-0.16,0.02,0.97,0.00,-0.03,0.00,249
-0.15,0.02,0.97,-0.00,0.00,0.01,249
-0.15,0.02,0.97,-0.01,0.02,0.03,249
-0.16,0.02,0.97,-0.00,-0.03,0.05,249
-0.16,0.02,0.97,-0.01,-0.05,0.00,249
-0.16,0.02,0.97,-0.05,-0.02,-0.04,249
-0.16,0.02,0.97,-0.04,0.07,0.02,249
-0.16,0.02,0.97,-0.02,0.07,-0.00,249
-0.16,0.02,0.97,-0.02,0.01,-0.03,249
-0.16,0.02,0.97,-0.01,0.02,-0.04,249
-0.16,0.02,0.97,0.01,0.00,-0.00,249
-0.15,0.02,0.97,0.01,0.02,0.03,249
-0.16,0.02,0.97,0.01,0.05,0.04,249
-0.16,0.02,0.97,0.02,0.02,0.03,249
-0.16,0.02,0.97,0.04,-0.01,0.04,249
-0.16,0.02,0.97,0.02,-0.01,0.05,249
-0.16,0.02,0.97,0.01,0.01,0.02,249
-0.16,0.02,0.97,-0.03,0.02,0.00,249
-0.16,0.02,0.97,-0.03,0.00,0.01,249
-0.16,0.02,0.97,-0.02,0.01,-0.02,249
-0.16,0.02,0.97,-0.01,0.01,-0.00,249
-0.16,0.02,0.97,0.02,0.00,0.04,249
-0.16,0.02,0.97,0.01,0.00,0.03,249
-0.16,0.02,0.97,0.01,-0.03,0.04,249
-0.16,0.02,0.97,0.02,-0.04,0.05,249
-0.16,0.02,0.97,-0.00,-0.01,0.08,249
-0.15,0.02,0.97,-0.01,0.04,0.08,249
-0.16,0.02,0.97,-0.02,0.05,0.05,249
-0.16,0.02,0.97,-0.02,0.03,0.03,249
-0.16,0.02,0.97,-0.01,-0.01,0.00,249
-0.16,0.02,0.97,0.00,-0.02,-0.02,249
-0.16,0.02,0.97,-0.04,0.01,-0.01,249
-0.16,0.02,0.97,-0.04,0.02,0.04,249
-0.16,0.02,0.97,0.01,0.03,0.02,249
-0.16,0.02,0.97,-0.01,0.04,-0.02,249
-0.16,0.02,0.97,0.00,0.00,-0.05,249
-0.16,0.02,0.97,0.04,-0.03,-0.02,249
-0.16,0.02,0.97,-0.03,-0.05,0.03,249
-0.16,0.02,0.97,-0.06,-0.04,0.00,249
-0.16,0.02,0.97,-0.05,-0.02,-0.02,249
-0.16,0.02,0.97,-0.04,-0.03,-0.02,249
-0.16,0.02,0.97,0.02,-0.03,-0.01,249
-0.15,0.02,0.97,0.03,-0.02,0.03,249
-0.15,0.02,0.97,-0.01,-0.01,0.01,249
-0.16,0.02,0.97,-0.00,0.03,-0.02,249
-0.16,0.02,0.97,0.03,0.02,0.04,249
-0.16,0.02,0.97,0.04,0.01,0.05,249
-0.15,0.02,0.97,0.04,-0.00,-0.00,249
-0.15,0.02,0.97,0.01,-0.05,-0.03,249
-0.16,0.02,0.97,-0.03,-0.03,-0.05,249
-0.16,0.02,0.97,-0.01,-0.01,-0.06,249
-0.16,0.02,0.97,0.02,0.02,-0.05,249
-0.16,0.02,0.97,0.03,0.02,-0.02,249
-0.16,0.02,0.97,-0.00,-0.01,-0.01,249
-0.16,0.02,0.97,-0.02,0.02,-0.01,249
-0.16,0.02,0.97,-0.02,0.02,-0.04,249
-0.16,0.02,0.97,0.01,0.02,-0.00,249
-0.16,0.02,0.97,0.06,0.05,-0.00,249
-0.16,0.02,0.97,-0.01,0.04,-0.05,249
-0.16,0.02,0.97,-0.02,0.00,-0.04,249
-0.16,0.02,0.97,0.01,0.02,0.01,249
-0.16,0.02,0.97,-0.01,0.03,0.03,249
-0.15,0.02,0.97,0.00,0.02,-0.02,249
-0.16,0.02,0.97,0.01,0.03,-0.01,249
-0.16,0.02,0.97,-0.02,0.03,-0.06,249
-0.16,0.02,0.97,-0.01,0.02,-0.11,249
-0.15,0.02,0.97,0.02,0.01,-0.03,249
-0.15,0.02,0.97,0.02,0.01,0.01,250
-0.16,0.02,0.97,-0.01,0.03,-0.04,249
-0.16,0.02,0.97,-0.04,0.03,-0.05,249
-0.16,0.02,0.97,-0.03,0.00,0.02,249
-0.16,0.02,0.97,0.03,-0.04,0.02,249
-0.16,0.02,0.97,0.08,-0.06,-0.03,249
-0.16,0.02,0.97,0.04,-0.06,0.00,249
-0.16,0.02,0.97,0.00,-0.01,0.03,249
-0.16,0.02,0.97,-0.01,-0.01,0.05,249
-0.16,0.02,0.97,-0.01,0.00,0.04,249
-0.16,0.02,0.97,0.02,-0.00,0.02,249
-0.15,0.02,0.97,-0.01,-0.03,0.03,249
-0.15,0.02,0.97,-0.06,0.01,0.02,249
-0.15,0.02,0.97,-0.08,0.02,0.01,249
-0.15,0.02,0.97,-0.04,0.01,-0.00,249
-0.16,0.02,0.97,-0.01,-0.02,0.03,249
-0.16,0.02,0.97,0.02,-0.03,0.05,249
-0.16,0.02,0.97,0.01,-0.03,0.04,249
-0.16,0.02,0.97,-0.01,-0.03,0.03,249
-0.15,0.02,0.97,0.03,-0.01,0.00,249
-0.15,0.02,0.97,0.01,-0.01,0.01,249
-0.16,0.02,0.97,-0.01,-0.03,0.01,249
-0.16,0.02,0.97,0.01,-0.01,-0.04,249
-0.15,0.02,0.97,-0.01,0.02,-0.04,249
-0.16,0.02,0.97,-0.04,0.02,-0.00,249
-0.16,0.02,0.97,-0.03,-0.03,-0.00,249
-0.16,0.02,0.97,0.01,-0.01,0.00,249
-0.16,0.02,0.97,0.03,0.01,0.02,249
-0.16,0.02,0.97,-0.02,0.02,0.03,249
-0.16,0.02,0.97,-0.02,0.02,0.04,249
-0.16,0.02,0.97,0.01,-0.01,0.02,249
-0.16,0.02,0.97,0.02,-0.04,-0.01,249
-0.15,0.02,0.97,-0.02,-0.05,-0.03,249
-0.16,0.02,0.97,-0.03,0.02,-0.04,249
-0.15,0.02,0.97,0.01,0.03,0.00,249
-0.15,0.02,0.97,0.01,0.00,-0.00,249
-0.15,0.02,0.97,-0.02,0.01,0.01,249
-0.15,0.02,0.97,-0.01,-0.00,0.04,249
-0.16,0.02,0.97,0.01,0.00,-0.02,249
-0.16,0.02,0.97,-0.00,0.04,-0.03,249
-0.16,0.02,0.97,-0.02,0.00,-0.02,249
-0.16,0.02,0.97,-0.01,-0.01,0.02,249
-0.16,0.02,0.97,-0.02,0.00,0.04,249
-0.16,0.02,0.97,0.00,0.00,-0.00,249
-0.16,0.02,0.97,0.04,0.01,-0.02,249
-0.16,0.02,0.97,0.03,0.01,0.00,250
-0.16,0.02,0.97,0.03,-0.01,0.01,249
-0.16,0.02,0.97,-0.01,-0.00,0.02,249
-0.16,0.02,0.97,-0.04,0.00,0.03,249
-0.16,0.02,0.97,-0.04,0.01,-0.02,249
-0.16,0.02,0.97,0.01,0.02,-0.04,249
-0.16,0.02,0.97,0.05,0.01,-0.00,249
-0.16,0.02,0.97,0.01,0.00,0.00,249
-0.16,0.02,0.97,-0.03,-0.02,-0.04,249
-0.16,0.02,0.97,-0.03,0.00,-0.06,249
-0.16,0.02,0.97,-0.01,0.02,-0.07,249
-0.16,0.02,0.97,0.03,-0.01,-0.03,249
-0.16,0.02,0.97,0.03,-0.00,-0.02,249
-0.16,0.02,0.97,0.01,0.06,-0.01,249
-0.15,0.02,0.97,0.00,0.07,0.02,249
-0.15,0.02,0.97,0.03,0.02,-0.01,249
-0.15,0.02,0.97,0.01,-0.02,-0.02,249
-0.15,0.02,0.97,0.01,-0.00,0.04,249
-0.15,0.02,0.97,0.01,0.00,0.04,249
-0.16,0.02,0.97,-0.02,-0.03,-0.01,249
-0.16,0.02,0.97,-0.02,-0.01,-0.04,249
-0.16,0.02,0.97,0.01,0.02,-0.02,249
-0.16,0.02,0.97,0.01,-0.00,-0.02,249
-0.16,0.02,0.97,-0.02,0.00,-0.02,249
-0.16,0.02,0.97,-0.05,0.04,0.01,249
-0.16,0.02,0.97,-0.09,0.07,-0.00,249
-0.16,0.02,0.97,-0.07,0.04,0.01,249
-0.16,0.02,0.97,-0.02,0.00,0.03,249
-0.16,0.02,0.97,0.03,-0.03,-0.01,249
-0.16,0.02,0.97,0.05,-0.07,-0.05,249
-0.16,0.02,0.97,0.04,-0.04,-0.04,249
-0.16,0.02,0.97,0.02,0.01,0.01,249
-0.16,0.02,0.97,-0.03,0.05,0.04,249
-0.16,0.02,0.97,-0.02,0.03,0.00,249
-0.16,0.02,0.97,0.02,0.00,-0.02,249
-0.16,0.02,0.97,-0.00,-0.00,-0.01,249
-0.16,0.02,0.97,-0.02,0.01,0.02,249
-0.16,0.02,0.97,-0.01,0.03,0.05,249
-0.16,0.02,0.97,0.00,0.00,-0.00,249
-0.15,0.02,0.97,-0.02,-0.00,-0.05,249
-0.16,0.02,0.97,-0.04,-0.00,-0.04,249
-0.16,0.02,0.97,-0.05,-0.00,0.00,249
-0.16,0.02,0.97,-0.04,0.00,0.02,249
-0.15,0.02,0.97,0.00,-0.04,0.01,249
-0.16,0.02,0.97,0.04,-0.04,0.01,249
-0.16,0.02,0.97,0.02,0.01,-0.01,249
-0.15,0.02,0.97,-0.02,0.05,-0.00,249
-0.16,0.02,0.97,-0.05,0.07,0.04,249
-0.16,0.02,0.97,-0.02,0.02,0.02,249
-0.15,0.02,0.97,0.01,0.01,0.00,249
-0.16,0.02,0.97,0.03,0.00,0.01,249
-0.16,0.02,0.97,0.04,0.02,0.02,249
-0.16,0.02,0.97,0.05,0.01,0.03,249
-0.16,0.02,0.97,0.04,-0.02,0.02,249
-0.16,0.02,0.97,0.03,-0.02,-0.00,249
-0.16,0.02,0.97,-0.02,-0.03,-0.02,249
-0.16,0.02,0.97,-0.04,0.00,-0.03,249
-0.16,0.02,0.97,0.01,-0.01,-0.03,249
-0.16,0.02,0.97,-0.01,-0.01,-0.04,249
-0.15,0.02,0.97,-0.01,-0.00,-0.05,249
-0.15,0.02,0.97,0.01,-0.02,-0.03,249
-0.15,0.02,0.97,-0.05,-0.01,-0.00,249
-0.16,0.02,0.97,-0.05,-0.01,0.02,249
-0.16,0.02,0.97,0.02,0.03,0.01,249
-0.16,0.02,0.97,0.04,0.01,-0.02,249
-0.15,0.02,0.97,-0.01,-0.04,-0.02,249
-0.15,0.02,0.97,-0.06,-0.02,-0.02,249
-0.16,0.02,0.97,-0.07,-0.01,-0.02,249
-0.16,0.02,0.97,-0.04,0.00,-0.03,249
-0.16,0.02,0.97,0.02,0.03,-0.04,249
-0.16,0.02,0.97,0.04,-0.01,-0.02,249
-0.16,0.02,0.97,0.03,-0.02,0.02,249
-0.16,0.02,0.97,0.04,0.02,0.03,249
-0.16,0.02,0.97,0.01,0.00,-0.00,249
-0.16,0.02,0.97,0.01,-0.01,-0.03,249
-0.16,0.02,0.97,0.05,-0.01,0.00,249
-0.16,0.02,0.97,0.04,0.02,0.07,249
-0.16,0.02,0.97,-0.01,0.05,0.06,249
-0.16,0.02,0.97,-0.04,0.04,0.01,249
-0.15,0.02,0.97,0.02,0.03,0.03,249
-0.15,0.02,0.97,0.06,-0.00,0.03,249
-0.16,0.02,0.97,0.04,-0.02,0.00,249
-0.16,0.02,0.97,0.01,0.00,0.01,249
-0.16,0.02,0.97,0.00,0.02,0.01,249
-0.16,0.02,0.97,0.03,0.00,0.01,249
-0.16,0.02,0.97,0.01,-0.00,0.00,249
-0.16,0.02,0.97,0.02,0.02,0.01,249
-0.15,0.02,0.97,-0.01,0.02,0.01,249
-0.15,0.02,0.97,-0.04,0.02,-0.02,249
-0.15,0.02,0.97,-0.04,0.01,-0.01,249
-0.16,0.02,0.97,-0.04,-0.02,-0.00,249
-0.15,0.02,0.97,-0.00,-0.03,-0.02,249
-0.15,0.02,0.97,-0.02,-0.03,-0.02,249
-0.15,0.02,0.97,-0.01,-0.03,-0.00,249
-0.15,0.02,0.97,0.01,-0.00,0.02,249
-0.16,0.02,0.97,-0.02,-0.01,0.01,249
-0.16,0.02,0.97,-0.02,-0.02,-0.02,249
-0.16,0.02,0.97,-0.03,-0.03,0.01,249
-0.16,0.02,0.97,-0.05,-0.03,0.05,249
-0.16,0.02,0.97,-0.07,-0.04,0.05,249
-0.16,0.02,0.97,-0.03,-0.02,0.06,249
-0.16,0.02,0.97,0.02,-0.03,0.01,250
-0.16,0.02,0.97,0.02,-0.04,-0.04,249
-0.16,0.02,0.97,0.00,-0.01,-0.04,249
-0.16,0.02,0.97,0.03,0.01,-0.04,249
-0.16,0.02,0.97,0.06,0.03,-0.02,249
-0.16,0.02,0.97,0.04,0.02,0.02,249
-0.16,0.02,0.97,0.01,-0.01,0.04,249
-0.16,0.02,0.97,-0.02,-0.01,0.02,249
-0.16,0.02,0.97,-0.02,-0.01,-0.02,249
-0.16,0.02,0.97,0.03,-0.02,-0.02,249
-0.16,0.02,0.97,-0.00,-0.01,0.03,249
-0.16,0.02,0.97,-0.01,0.04,0.00,250
-0.16,0.02,0.97,-0.01,0.05,-0.03,249
-0.16,0.02,0.97,-0.03,0.03,-0.01,249
-0.16,0.02,0.97,-0.01,-0.02,-0.00,249
-0.15,0.02,0.97,0.02,-0.06,0.05,249
-0.15,0.02,0.97,0.00,-0.02,0.04,249
-0.15,0.02,0.97,-0.04,-0.02,-0.01,249
-0.16,0.02,0.97,-0.04,-0.05,-0.01,249
-0.16,0.02,0.97,-0.01,-0.03,-0.02,249
-0.15,0.02,0.97,0.01,-0.01,-0.00,249
-0.16,0.02,0.97,0.02,-0.01,-0.00,249
-0.16,0.02,0.97,0.01,-0.01,0.03,249
-0.16,0.02,0.97,-0.05,0.00,0.03,249
-0.16,0.02,0.97,-0.06,-0.03,0.02,249
-0.15,0.02,0.97,0.00,-0.03,-0.02,249
-0.15,0.02,0.97,0.03,0.02,-0.02,249
-0.16,0.02,0.97,0.05,-0.01,0.04,249
-0.16,0.02,0.97,0.01,-0.05,0.03,249
-0.16,0.02,0.97,-0.04,-0.01,-0.01,249
-0.15,0.02,0.97,-0.02,-0.03,-0.03,250
-0.15,0.02,0.97,0.00,-0.03,-0.00,249
-0.16,0.02,0.97,0.00,-0.03,-0.01,249
-0.16,0.02,0.97,-0.01,-0.01,-0.04,249
-0.16,0.02,0.97,-0.02,0.05,-0.02,249
-0.16,0.02,0.97,-0.02,0.00,-0.02,249
-0.15,0.02,0.97,-0.01,-0.02,-0.00,249
-0.16,0.02,0.97,0.01,-0.02,0.01,249
-0.16,0.02,0.97,-0.01,-0.04,0.01,249
-0.16,0.02,0.97,-0.04,-0.02,0.01,249
-0.16,0.02,0.97,-0.02,0.01,0.02,249
-0.16,0.02,0.97,-0.03,0.03,-0.03,249
-0.16,0.02,0.97,-0.01,0.00,0.01,249
-0.16,0.02,0.97,0.01,-0.01,0.07,249
-0.16,0.02,0.97,-0.01,-0.00,0.05,249
-0.16,0.02,0.97,-0.04,-0.01,0.01,249
-0.16,0.02,0.97,-0.01,-0.01,-0.02,249
-0.16,0.02,0.97,0.01,0.00,-0.00,249
-0.16,0.02,0.97,0.01,-0.02,0.02,249
-0.16,0.02,0.97,0.04,-0.00,-0.02,249
-0.16,0.02,0.97,0.03,0.03,-0.04,249
-0.16,0.02,0.97,0.00,-0.01,0.01,249
-0.16,0.02,0.97,0.01,-0.06,-0.02,249
-0.16,0.02,0.97,0.01,-0.03,0.03,249
-0.15,0.02,0.97,0.03,-0.01,0.06,249
-0.16,0.02,0.97,0.02,-0.01,0.01,249
-0.16,0.02,0.97,-0.03,-0.03,0.02,249
-0.16,0.02,0.97,-0.03,0.00,-0.00,249
-0.16,0.02,0.97,0.01,0.04,-0.01,249
-0.15,0.02,0.97,0.02,0.04,0.03,249
-0.15,0.02,0.97,0.03,0.04,-0.00,249
-0.15,0.02,0.97,0.02,0.02,-0.01,249
-0.15,0.02,0.97,-0.01,-0.01,0.01,249
-0.16,0.02,0.97,-0.04,-0.04,-0.01,250
-0.16,0.02,0.97,-0.01,-0.01,-0.02,249
-0.16,0.02,0.97,-0.00,0.02,-0.00,249
-0.15,0.02,0.97,-0.01,-0.02,-0.05,249
-0.15,0.02,0.97,0.00,-0.04,-0.04,249
-0.15,0.02,0.97,-0.00,-0.02,-0.02,249
-0.16,0.02,0.97,0.01,-0.00,-0.01,249
-0.16,0.02,0.97,0.00,-0.01,0.01,249
-0.16,0.02,0.97,0.01,-0.03,0.01,249
-0.16,0.02,0.97,0.01,0.04,0.00,249
-0.16,0.02,0.97,0.05,0.04,-0.01,249
-0.16,0.02,0.97,0.06,0.03,0.04,249
-0.16,0.02,0.97,0.01,0.03,0.05,249
-0.16,0.02,0.97,-0.02,0.01,0.02,249
-0.16,0.02,0.97,0.01,0.02,-0.03,249
-0.16,0.02,0.97,0.03,0.00,0.01,249
-0.16,0.02,0.97,-0.04,-0.02,0.02,249
-0.16,0.02,0.97,-0.03,-0.01,-0.01,249
-0.16,0.02,0.97,0.04,-0.02,0.01,249
-0.16,0.02,0.97,0.03,-0.03,0.01,249
-0.16,0.02,0.97,0.03,-0.03,-0.02,249
-0.16,0.02,0.97,0.03,-0.00,0.00,249
-0.16,0.02,0.97,-0.01,0.02,0.03,249
-0.15,0.02,0.97,-0.07,0.01,0.01,249
-0.15,0.02,0.97,-0.02,-0.03,-0.01,249
-0.16,0.02,0.97,0.01,-0.04,-0.00,249
-0.16,0.02,0.97,0.03,-0.01,0.05,249
-0.16,0.02,0.97,0.04,0.00,0.01,249
-0.16,0.02,0.97,-0.04,-0.01,-0.02,249
-0.16,0.02,0.97,-0.06,0.01,-0.00,249
-0.16,0.02,0.97,-0.04,0.00,0.00,249
-0.16,0.02,0.97,0.01,-0.03,-0.02,249
-0.16,0.02,0.97,0.03,-0.04,-0.03,249
-0.16,0.02,0.97,0.01,-0.05,-0.02,249
-0.16,0.02,0.97,-0.04,-0.02,-0.01,249
-0.16,0.02,0.97,-0.02,0.00,0.03,249
-0.16,0.02,0.97,0.03,-0.01,0.03,249
-0.16,0.02,0.97,0.01,-0.05,0.03,249
-0.16,0.02,0.97,-0.02,-0.03,0.04,249
-0.16,0.02,0.97,-0.02,0.02,-0.00,249
-0.16,0.02,0.97,-0.02,0.00,0.01,249
-0.15,0.02,0.97,0.02,-0.03,0.04,249
-0.15,0.02,0.97,0.02,-0.03,0.03,249
-0.15,0.02,0.97,-0.03,-0.01,-0.01,249
-0.15,0.02,0.97,-0.02,0.02,-0.01,249
-0.16,0.02,0.97,-0.02,0.06,0.01,249
-0.16,0.02,0.97,-0.04,0.02,-0.02,249
-0.16,0.02,0.97,-0.02,-0.04,-0.04,249
-0.16,0.02,0.97,-0.02,-0.02,-0.01,249
-0.16,0.02,0.97,-0.01,-0.03,0.01,249
-0.16,0.02,0.97,-0.02,-0.02,-0.01,249
-0.16,0.02,0.97,-0.01,0.00,-0.01,249
-0.16,0.02,0.97,-0.02,0.02,-0.00,249
-0.15,0.02,0.97,-0.01,-0.02,-0.02,249
-0.15,0.02,0.97,0.04,-0.02,-0.02,249
-0.16,0.02,0.97,0.01,0.00,0.03,249
-0.16,0.02,0.97,0.01,-0.02,0.05,249
-0.16,0.02,0.97,-0.02,0.00,-0.02,249
-0.16,0.02,0.97,-0.06,0.03,-0.07,249
-0.16,0.02,0.97,-0.07,0.02,-0.05,249
-0.15,0.02,0.97,-0.02,0.00,-0.02,249
-0.15,0.02,0.97,0.01,-0.03,0.00,249
-0.15,0.02,0.97,0.01,-0.04,-0.05,249
-0.16,0.02,0.97,0.01,-0.02,-0.03,249
-0.16,0.02,0.97,-0.03,-0.00,0.03,249
-0.15,0.02,0.97,-0.02,0.01,0.01,249
-0.15,0.02,0.97,0.04,0.02,-0.02,249
-0.16,0.02,0.97,0.06,0.00,-0.05,249
-0.16,0.02,0.97,0.02,-0.01,-0.03,249
-0.16,0.02,0.97,0.00,0.02,-0.03,249
-0.16,0.02,0.97,0.01,0.04,-0.02,249
-0.16,0.02,0.97,-0.00,0.07,0.04,249
-0.16,0.02,0.97,0.00,0.06,0.03,249
-0.16,0.02,0.97,0.03,0.03,0.01,249
-0.16,0.02,0.97,0.04,-0.00,0.01,249
-0.16,0.02,0.97,0.02,-0.01,-0.01,249
-0.15,0.02,0.97,-0.02,-0.00,-0.01,249
-0.15,0.02,0.97,-0.05,-0.03,-0.03,249
-0.15,0.02,0.97,-0.03,-0.01,-0.00,249
-0.16,0.02,0.97,0.03,0.01,-0.00,249
-0.16,0.02,0.97,0.03,0.03,-0.02,249
-0.16,0.02,0.97,-0.01,0.04,0.01,249
-0.16,0.02,0.97,0.00,0.04,0.01,249
-0.16,0.02,0.97,0.02,0.00,0.00,249
-0.16,0.02,0.97,0.03,-0.04,0.00,249
-0.16,0.02,0.97,0.01,-0.03,0.01,249
-0.16,0.02,0.97,-0.02,-0.01,0.01,249
-0.16,0.02,0.97,-0.01,0.01,0.01,249
-0.15,0.02,0.97,-0.01,0.01,-0.02,249
-0.16,0.02,0.97,-0.01,-0.03,-0.05,249
-0.16,0.02,0.97,0.03,-0.01,-0.00,249
-0.16,0.02,0.97,0.03,-0.02,-0.00,249
-0.15,0.02,0.97,-0.01,-0.01,-0.02,249
-0.15,0.02,0.97,-0.01,-0.00,-0.00,249
-0.16,0.02,0.97,-0.01,-0.02,-0.02,249
-0.16,0.02,0.97,-0.00,0.02,0.01,249
-0.16,0.02,0.97,-0.03,0.04,0.05,249
-0.16,0.02,0.97,-0.05,0.07,0.03,249
-0.16,0.02,0.97,-0.03,0.02,0.02,249
-0.16,0.02,0.97,-0.02,-0.02,0.03,249
-0.16,0.02,0.97,-0.01,-0.04,0.00,249
-0.16,0.02,0.97,-0.02,-0.05,0.01,249
-0.15,0.02,0.97,-0.01,-0.03,0.04,249
-0.15,0.02,0.97,-0.02,-0.04,0.03,249
-0.16,0.02,0.97,-0.04,-0.03,0.00,249
-0.16,0.02,0.97,-0.02,0.00,-0.02,249
-0.15,0.02,0.97,0.03,0.01,-0.03,249
-0.16,0.02,0.97,0.04,0.02,-0.02,249
-0.16,0.02,0.97,0.03,0.03,0.01,249
-0.16,0.02,0.97,0.01,0.00,0.03,249
-0.16,0.02,0.97,-0.04,0.02,0.01,249
-0.16,0.02,0.97,-0.04,0.03,-0.00,250
-0.15,0.02,0.97,0.01,0.00,0.00,249
-0.15,0.02,0.97,0.04,-0.04,0.01,249
-0.15,0.02,0.97,0.05,-0.03,-0.01,249
-0.16,0.02,0.97,0.06,-0.04,-0.02,249
-0.16,0.02,0.97,-0.02,-0.02,0.03,249
-0.15,0.02,0.97,-0.05,0.02,0.01,249
-0.16,0.02,0.97,-0.03,0.03,-0.02,249
-0.16,0.02,0.97,-0.01,0.01,0.02,249
-0.15,0.02,0.97,0.02,-0.03,0.04,249
-0.16,0.02,0.97,0.02,-0.01,0.04,249
-0.16,0.02,0.97,-0.01,-0.01,0.02,249
-0.16,0.02,0.97,-0.06,0.01,0.01,249
-0.16,0.02,0.97,-0.05,0.03,0.01,249
-0.16,0.02,0.97,-0.02,0.00,0.01,249
-0.16,0.02,0.97,0.02,-0.01,0.01,249
-0.16,0.02,0.97,0.06,-0.01,-0.03,249
-0.15,0.02,0.97,0.03,-0.03,0.01,249
-0.15,0.02,0.97,-0.01,-0.04,0.04,249
-0.15,0.02,0.97,0.02,-0.01,0.02,249
-0.15,0.02,0.97,0.02,0.04,0.04,249
-0.15,0.02,0.97,0.02,0.04,0.02,249
-0.15,0.02,0.97,0.01,0.04,-0.02,249
-0.15,0.02,0.97,0.01,0.04,-0.04,249
-0.15,0.02,0.97,0.06,-0.01,-0.02,249
-0.15,0.02,0.97,0.07,-0.05,-0.02,249
-0.16,0.02,0.97,0.04,-0.04,-0.01,249
-0.16,0.02,0.97,-0.02,0.02,0.01,249
-0.16,0.02,0.97,-0.04,0.06,0.00,249
-0.16,0.02,0.97,0.01,0.03,-0.04,249
-0.16,0.02,0.97,0.02,0.02,-0.04,249
-0.16,0.02,0.97,0.03,0.00,0.00,249
-0.16,0.02,0.97,0.03,-0.00,0.05,249
-0.16,0.02,0.97,-0.02,0.02,0.06,249
-0.16,0.02,0.97,-0.06,0.00,0.01,249
-0.16,0.02,0.97,-0.05,-0.00,-0.06,249
-0.16,0.02,0.97,0.01,-0.03,-0.06,249
-0.16,0.02,0.97,0.04,-0.04,-0.03,249
-0.16,0.02,0.97,-0.01,-0.01,-0.00,250
-0.16,0.02,0.97,-0.05,0.04,0.01,249
-0.15,0.02,0.97,-0.04,0.04,-0.01,249
-0.16,0.02,0.97,-0.06,0.02,-0.02,249
-0.16,0.02,0.97,-0.03,0.04,-0.02,249
-0.16,0.02,0.97,0.04,0.04,-0.02,249
-0.16,0.02,0.97,0.02,-0.01,0.01,249
-0.16,0.02,0.97,-0.04,-0.04,0.00,249
-0.16,0.02,0.97,-0.04,-0.00,-0.00,249
-0.16,0.02,0.97,-0.04,0.02,-0.00,249
-0.16,0.02,0.97,-0.02,0.02,-0.02,249
-0.15,0.02,0.97,0.01,0.05,0.00,249
-0.15,0.02,0.97,-0.02,0.04,0.03,249
-0.15,0.02,0.97,-0.01,-0.01,0.02,249
-0.16,0.02,0.97,0.02,0.03,0.03,249
-0.16,0.02,0.97,-0.01,0.00,0.04,249
-0.16,0.02,0.97,-0.04,-0.02,0.01,249
-0.16,0.02,0.97,0.00,-0.05,0.00,249
-0.16,0.02,0.97,0.04,-0.02,0.01,249
-0.16,0.02,0.97,0.03,0.03,0.03,249
-0.16,0.02,0.97,0.02,0.00,0.00,249
-0.16,0.02,0.97,-0.03,0.02,-0.02,250
-0.16,0.02,0.97,-0.05,0.00,-0.05,249
-0.15,0.02,0.97,-0.01,-0.03,-0.05,249
-0.16,0.02,0.97,0.03,0.00,-0.00,249
-0.16,0.02,0.97,-0.03,0.01,0.02,249
-0.16,0.02,0.97,-0.02,-0.00,-0.00,249
-0.16,0.02,0.97,0.01,0.02,-0.02,249
-0.16,0.02,0.97,0.00,0.04,-0.02,249
-0.16,0.02,0.97,-0.01,0.03,-0.00,249
-0.16,0.02,0.97,-0.02,-0.03,0.03,249
-0.16,0.02,0.97,-0.00,-0.01,0.02,249
-0.16,0.02,0.97,0.03,0.02,-0.00,249
-0.15,0.02,0.97,0.03,0.00,0.03,250
-0.16,0.02,0.97,0.01,-0.00,0.04,249
-0.16,0.02,0.97,0.00,-0.01,0.05,249
-0.16,0.02,0.97,-0.00,-0.01,0.05,249
-0.15,0.02,0.97,0.01,-0.00,-0.01,249
-0.15,0.02,0.97,0.04,-0.06,-0.04,249
-0.16,0.02,0.97,0.04,-0.08,-0.01,249
-0.16,0.02,0.97,-0.01,-0.01,0.03,249
-0.16,0.02,0.97,-0.03,0.00,0.06,249
-0.16,0.02,0.97,-0.01,0.01,0.01,249
-0.16,0.02,0.97,-0.03,0.02,-0.02,249
-0.16,0.02,0.97,-0.03,0.01,-0.02,249
-0.16,0.02,0.97,-0.02,-0.03,-0.02,249
-0.16,0.02,0.97,-0.04,-0.05,-0.01,249
-0.16,0.02,0.97,-0.05,-0.04,0.00,249
-0.16,0.02,0.97,-0.05,-0.00,0.04,249
-0.16,0.02,0.97,-0.00,0.01,-0.02,249
-0.16,0.02,0.97,0.05,0.02,-0.02,249
-0.16,0.02,0.97,0.03,0.01,-0.02,249
-0.16,0.02,0.97,-0.01,-0.02,-0.03,249
-0.16,0.02,0.97,-0.04,-0.01,-0.03,249
-0.16,0.02,0.97,0.01,-0.04,-0.04,249
-0.16,0.02,0.97,0.02,-0.02,-0.00,249
-0.16,0.02,0.97,-0.04,0.00,-0.03,249
-0.16,0.02,0.97,-0.06,-0.01,-0.04,249
-0.16,0.02,0.97,-0.01,0.00,-0.02,249
-0.16,0.02,0.97,0.04,-0.01,-0.02,249
-0.16,0.02,0.97,0.03,-0.01,-0.05,249
-0.16,0.02,0.97,0.03,0.02,-0.07,249
-0.15,0.02,0.97,0.02,0.05,-0.04,249
-0.15,0.02,0.97,-0.01,0.07,-0.02,249
-0.15,0.02,0.97,-0.04,0.05,-0.00,249
-0.15,0.02,0.97,0.02,0.00,-0.00,249
-0.16,0.02,0.97,0.03,0.01,0.01,249
-0.16,0.02,0.97,-0.02,0.02,-0.03,250
-0.16,0.02,0.97,-0.01,0.00,-0.03,249
-0.15,0.02,0.97,0.02,-0.00,-0.01,249
-0.16,0.02,0.97,0.04,-0.01,-0.01,249
-0.15,0.02,0.97,0.06,-0.02,-0.03,249
-0.15,0.02,0.97,0.03,-0.03,-0.04,249
-0.16,0.02,0.97,-0.03,-0.03,0.02,249
-0.16,0.02,0.97,-0.04,-0.03,0.04,249
-0.16,0.02,0.97,-0.01,-0.03,0.03,249
-0.16,0.02,0.97,0.01,-0.03,0.03,249
-0.16,0.02,0.97,-0.02,-0.01,0.01,249
-0.16,0.02,0.97,-0.04,-0.01,0.00,249
-0.16,0.02,0.97,-0.00,0.00,-0.02,249
-0.16,0.02,0.97,0.01,-0.01,-0.05,249
-0.16,0.02,0.97,0.01,-0.04,-0.01,249
-0.16,0.02,0.97,0.02,-0.01,-0.00,249
-0.16,0.02,0.97,-0.01,0.05,-0.01,249
-0.16,0.02,0.97,-0.02,0.07,-0.00,249
-0.16,0.02,0.97,0.03,0.00,-0.00,249
-0.16,0.02,0.97,0.03,-0.03,0.02,249
-0.16,0.02,0.97,-0.00,-0.02,-0.00,249
-0.16,0.02,0.97,-0.03,-0.01,-0.00,249
-0.16,0.02,0.97,-0.02,-0.00,0.07,249
-0.16,0.02,0.97,0.01,0.00,0.07,249
-0.15,0.02,0.97,0.03,0.00,0.01,249
-0.16,0.02,0.97,0.04,-0.00,-0.02,250
-0.16,0.02,0.97,-0.01,0.04,0.00,249
-0.16,0.02,0.97,-0.03,0.03,0.04,249
-0.16,0.02,0.97,-0.00,-0.01,0.03,249
-0.16,0.02,0.97,0.03,-0.02,0.00,249
-0.16,0.02,0.97,0.04,-0.03,-0.00,249
-0.16,0.02,0.97,0.02,-0.06,0.01,249
-0.16,0.02,0.97,-0.03,-0.02,0.07,249
-0.15,0.02,0.97,-0.01,0.04,0.07,249
-0.16,0.02,0.97,0.04,-0.00,0.01,249
-0.15,0.02,0.97,0.05,-0.01,0.01,249
-0.16,0.02,0.97,0.03,0.02,0.03,249
-0.16,0.02,0.97,0.01,-0.01,-0.02,249
-0.16,0.02,0.97,0.03,-0.01,-0.04,249
-0.16,0.02,0.97,0.01,-0.01,-0.00,250
-0.16,0.02,0.97,-0.01,-0.00,-0.00,249
-0.16,0.02,0.97,-0.01,-0.01,-0.02,249
-0.16,0.02,0.97,-0.02,-0.03,-0.00,249
-0.16,0.02,0.97,-0.01,0.01,-0.00,249
-0.16,0.02,0.97,-0.02,0.02,-0.02,249
-0.16,0.02,0.97,-0.02,-0.02,-0.03,249
-0.16,0.02,0.97,-0.01,-0.01,-0.04,249
-0.16,0.02,0.97,-0.04,-0.00,-0.03,249
-0.16,0.02,0.97,-0.02,0.02,-0.00,249
-0.15,0.02,0.97,-0.00,0.01,0.01,249
-0.15,0.02,0.97,0.05,-0.03,0.03,249
-0.16,0.02,0.97,0.05,0.00,0.03,249
-0.16,0.02,0.97,-0.01,0.04,-0.01,249
-0.16,0.02,0.97,-0.00,0.01,0.01,249
-0.16,0.02,0.97,-0.02,0.00,-0.00,249
-0.15,0.02,0.97,-0.04,0.02,-0.02,249
-0.15,0.02,0.97,-0.01,-0.00,-0.01,249
-0.16,0.02,0.97,0.03,0.00,-0.01,249
-0.16,0.02,0.97,-0.03,-0.01,0.01,249
-0.16,0.02,0.97,-0.03,-0.03,0.04,249
-0.16,0.02,0.97,0.01,-0.01,0.01,249
-0.16,0.02,0.97,0.04,0.00,0.01,249
-0.16,0.02,0.97,0.03,-0.01,0.03,249
-0.16,0.02,0.97,0.01,-0.00,0.03,249
-0.16,0.02,0.97,-0.01,0.02,0.03,249
-0.16,0.02,0.97,-0.03,-0.01,0.04,249
-0.16,0.02,0.97,-0.00,-0.03,0.01,249
-0.16,0.02,0.97,0.01,-0.01,0.00,249
-0.16,0.02,0.97,0.01,0.02,0.02,249
-0.16,0.02,0.97,-0.03,0.02,-0.01,250
-0.15,0.02,0.97,-0.08,0.02,0.00,249
-0.16,0.02,0.97,-0.04,-0.00,0.04,249
-0.16,0.02,0.97,0.00,-0.02,0.02,249
-0.16,0.02,0.97,0.01,-0.02,-0.01,249
-0.16,0.02,0.97,-0.00,-0.03,-0.02,249
-0.16,0.02,0.97,-0.04,-0.01,-0.02,249
-0.16,0.02,0.97,-0.01,-0.01,-0.01,249
-0.16,0.02,0.97,0.03,-0.03,-0.02,249
-0.16,0.02,0.97,0.01,0.00,-0.01,249
-0.16,0.02,0.97,-0.03,0.00,0.01,249
-0.15,0.02,0.97,-0.02,0.02,0.04,249
-0.15,0.02,0.97,0.03,0.02,0.05,249
-0.15,0.02,0.97,0.02,-0.04,0.04,249
-0.15,0.02,0.97,-0.03,-0.01,-0.01,249
-0.16,0.02,0.97,-0.02,0.04,-0.01,249
-0.16,0.02,0.97,-0.03,0.03,-0.01,249
-0.16,0.02,0.97,-0.05,-0.01,-0.02,249
-0.16,0.02,0.97,-0.03,-0.03,-0.04,249
-0.16,0.02,0.97,-0.02,-0.03,-0.01,249
-0.16,0.02,0.97,-0.01,-0.03,0.01,249
-0.16,0.02,0.97,0.00,-0.02,-0.02,249
-0.16,0.02,0.97,-0.03,-0.02,-0.01,249
-0.16,0.02,0.97,-0.01,-0.00,0.03,249
-0.15,0.02,0.97,0.03,-0.01,0.03,249
-0.15,0.02,0.97,0.02,0.00,0.02,249
-0.15,0.02,0.97,0.00,0.00,0.01,249
-0.16,0.02,0.97,-0.00,-0.03,-0.02,249
-0.16,0.02,0.97,-0.00,-0.01,0.00,249
-0.15,0.02,0.97,-0.01,-0.03,-0.00,249
-0.15,0.02,0.97,0.01,-0.01,-0.04,249
-0.16,0.02,0.97,-0.01,0.00,0.01,249
-0.16,0.02,0.97,-0.02,0.01,0.03,249
-0.15,0.02,0.97,0.00,-0.00,-0.03,249
-0.16,0.02,0.97,0.01,-0.04,-0.03,249
-0.16,0.02,0.97,0.01,-0.04,0.02,249
-0.16,0.02,0.97,-0.01,-0.04,0.01,249
-0.16,0.02,0.97,-0.05,-0.03,0.01,249
-0.15,0.02,0.97,-0.03,-0.03,-0.01,249
-0.15,0.02,0.97,0.01,-0.04,-0.02,249
-0.15,0.02,0.97,-0.00,-0.01,0.02,249
-0.16,0.02,0.97,-0.00,-0.01,0.02,249
-0.16,0.02,0.97,-0.04,-0.01,0.00,249
-0.16,0.02,0.97,-0.04,0.01,0.01,249
-0.15,0.02,0.97,0.00,-0.03,-0.02,249
-0.15,0.02,0.97,0.06,-0.08,-0.05,249
-0.15,0.02,0.97,0.05,-0.07,-0.04,249
-0.16,0.02,0.97,0.01,-0.03,-0.00,249
-0.16,0.02,0.97,-0.01,0.02,0.01,249
-0.16,0.02,0.97,0.01,0.03,-0.00,249
-0.16,0.02,0.97,0.03,0.02,-0.03,249
-0.16,0.02,0.97,0.00,0.02,-0.01,249
-0.16,0.02,0.97,-0.02,0.02,0.00,249
-0.16,0.02,0.97,-0.00,-0.00,-0.01,249
-0.16,0.02,0.97,0.02,-0.01,0.01,249
-0.16,0.02,0.97,0.02,-0.03,0.02,249
-0.15,0.02,0.97,0.05,-0.03,0.01,249
-0.15,0.02,0.97,0.01,-0.00,-0.02,249
-0.16,0.02,0.97,-0.02,0.02,-0.07,249
-0.16,0.02,0.97,-0.04,0.03,-0.04,249
-0.16,0.02,0.97,0.01,0.02,-0.00,249
-0.16,0.02,0.97,0.03,-0.01,-0.04,249
-0.16,0.02,0.97,0.01,0.01,-0.04,249
-0.15,0.02,0.97,0.02,0.00,0.01,249
-0.16,0.02,0.97,-0.02,-0.02,0.05,249
-0.16,0.02,0.97,-0.02,0.01,0.01,249
-0.16,0.02,0.97,-0.00,0.02,0.01,249
-0.16,0.02,0.97,-0.04,0.02,0.01,249
-0.16,0.02,0.97,-0.05,0.02,-0.03,249
-0.16,0.02,0.97,-0.01,0.02,-0.01,249
-0.16,0.02,0.97,0.02,0.02,0.04,249
-0.16,0.02,0.97,0.03,-0.03,0.01,249
-0.16,0.02,0.97,0.03,-0.01,-0.03,249
-0.15,0.02,0.97,-0.02,0.02,-0.01,250
-0.15,0.02,0.97,-0.03,0.01,-0.02,249
-0.15,0.02,0.97,-0.00,0.00,0.03,249
-0.16,0.02,0.97,0.05,-0.01,0.06,249
-0.15,0.02,0.97,0.05,-0.05,0.03,249
-0.15,0.02,0.97,0.03,-0.04,-0.01,249
-0.16,0.02,0.97,-0.00,0.01,-0.02,249
-0.16,0.02,0.97,-0.05,0.02,0.01,249
-0.16,0.02,0.97,-0.02,0.00,-0.00,249
-0.16,0.02,0.97,-0.01,0.00,0.01,249
-0.16,0.02,0.97,-0.04,0.02,-0.00,249
-0.16,0.02,0.97,-0.01,-0.01,0.01,249
-0.15,0.02,0.97,0.01,0.00,0.06,249
-0.16,0.02,0.97,-0.00,-0.01,-0.01,249
-0.16,0.02,0.97,-0.01,-0.01,-0.04,249
-0.16,0.02,0.97,-0.04,0.04,-0.01,249
-0.16,0.02,0.97,-0.08,0.05,-0.05,249
-0.16,0.02,0.97,-0.04,0.01,-0.01,249
-0.16,0.02,0.97,0.03,0.02,0.01,249
-0.16,0.02,0.97,0.03,0.00,0.01,249
-0.16,0.02,0.97,-0.04,-0.02,-0.05,249
-0.16,0.02,0.97,-0.03,-0.00,-0.05,249
-0.16,0.02,0.97,0.01,-0.02,0.01,249
-0.15,0.02,0.97,-0.03,-0.00,0.03,249
-0.15,0.02,0.97,-0.01,0.00,0.03,249
-0.16,0.02,0.97,0.01,-0.04,-0.02,249
-0.16,0.02,0.97,-0.00,0.02,-0.02,249
-0.16,0.02,0.97,0.01,0.04,0.00,249
-0.16,0.02,0.97,0.04,-0.03,0.02,249
-0.16,0.02,0.97,0.01,-0.03,0.04,249
-0.16,0.02,0.97,-0.03,-0.03,-0.03,249
-0.16,0.02,0.97,-0.01,0.01,-0.02,249
-0.16,0.02,0.97,-0.00,-0.01,0.02,249
-0.16,0.02,0.97,0.00,-0.06,-0.00,249
-0.16,0.02,0.97,0.01,-0.04,-0.03,249
-0.15,0.02,0.97,-0.00,0.02,-0.01,249
-0.16,0.02,0.97,-0.02,0.02,0.01,249
-0.16,0.02,0.97,-0.03,-0.02,0.01,249
-0.16,0.02,0.97,-0.02,0.02,0.03,249
-0.16,0.02,0.97,-0.04,0.01,0.02,249
-0.15,0.02,0.97,0.01,-0.04,-0.00,249
-0.15,0.02,0.97,0.04,-0.00,-0.02,249
-0.16,0.02,0.97,0.02,0.04,-0.00,249
-0.16,0.02,0.97,0.04,0.03,0.00,249
-0.16,0.02,0.97,0.04,0.00,0.01,249
-0.16,0.02,0.97,0.06,-0.01,0.04,249
-0.16,0.02,0.97,-0.01,0.02,-0.01,249
-0.16,0.02,0.97,-0.05,0.00,-0.01,249
-0.16,0.02,0.97,-0.04,-0.02,-0.00,249
-0.16,0.02,0.97,-0.01,0.00,0.00,249
-0.16,0.02,0.97,0.04,-0.03,0.01,249
-0.16,0.02,0.97,0.02,-0.01,0.01,249
-0.16,0.02,0.97,-0.01,0.02,-0.01,249
-0.16,0.02,0.97,-0.03,0.02,-0.03,249
-0.15,0.02,0.97,0.01,0.02,-0.02,249
-0.15,0.02,0.97,0.06,0.02,0.01,249
-0.16,0.02,0.97,0.05,-0.01,0.03,249
-0.16,0.02,0.97,-0.01,-0.01,0.02,249
-0.16,0.02,0.97,-0.04,-0.00,-0.01,249
-0.15,0.02,0.97,-0.02,0.00,-0.02,249
-0.15,0.02,0.97,0.03,0.04,0.01,249
-0.15,0.02,0.97,0.06,0.00,-0.05,249
-0.15,0.02,0.97,-0.00,-0.05,-0.05,249
-0.15,0.02,0.97,-0.06,-0.05,-0.03,249
-0.15,0.02,0.97,-0.07,-0.01,-0.03,249
-0.15,0.02,0.97,-0.04,0.01,-0.02,249
-0.16,0.02,0.97,0.01,0.03,0.01,249
-0.15,0.02,0.97,-0.00,-0.00,0.01,249
-0.16,0.02,0.97,-0.01,-0.01,0.02,249
-0.16,0.02,0.97,-0.01,0.01,0.01,249
-0.16,0.02,0.97,-0.03,-0.02,-0.02,249
-0.15,0.02,0.97,-0.04,-0.03,0.02,249
-0.15,0.02,0.97,-0.00,-0.03,0.01,249
-0.15,0.02,0.97,0.03,-0.04,-0.02,249
-0.15,0.02,0.97,-0.00,-0.01,-0.04,249
-0.16,0.02,0.97,0.02,0.01,-0.02,249
-0.16,0.02,0.97,0.03,-0.01,0.01,249
-0.16,0.02,0.97,0.04,0.02,0.03,249
-0.16,0.02,0.97,0.04,0.04,-0.02,249
-0.16,0.02,0.97,0.02,0.00,-0.02,249
-0.16,0.02,0.97,0.03,-0.01,0.03,249
-0.16,0.02,0.97,0.03,0.03,0.03,249
-0.15,0.02,0.97,0.02,0.03,-0.00,249
-0.16,0.02,0.97,-0.00,0.02,0.01,249
-0.16,0.02,0.97,0.02,0.04,0.04,249
-0.15,0.02,0.97,0.05,-0.02,0.04,249
-0.15,0.02,0.97,0.01,-0.02,0.01,249
-0.15,0.02,0.97,-0.03,0.02,-0.03,249
-0.16,0.02,0.97,-0.04,0.02,0.00,249
-0.16,0.02,0.97,-0.04,0.01,-0.01,249
-0.15,0.02,0.97,-0.00,-0.01,-0.00,249
-0.16,0.02,0.97,0.04,-0.01,-0.01,249
-0.16,0.02,0.97,0.04,-0.03,-0.04,249
-0.16,0.02,0.97,0.02,-0.03,-0.04,249
-0.16,0.02,0.97,-0.02,0.00,0.01,249
-0.16,0.02,0.97,-0.01,0.03,0.03,249
-0.16,0.02,0.97,-0.00,0.05,0.01,249
-0.15,0.02,0.97,0.02,0.01,0.01,249
-0.15,0.02,0.97,0.05,-0.03,0.03,249
-0.16,0.02,0.97,-0.00,-0.00,0.05,249
-0.16,0.02,0.97,-0.02,0.02,0.02,249
-0.16,0.02,0.97,-0.01,0.01,-0.04,249
-0.16,0.02,0.97,0.00,-0.01,-0.03,249
-0.15,0.02,0.97,0.01,-0.04,-0.04,249
-0.16,0.02,0.97,-0.01,-0.03,-0.05,249
-0.16,0.02,0.97,0.00,0.02,0.00,249
-0.16,0.02,0.97,0.03,0.02,0.05,249
-0.15,0.02,0.97,0.03,0.01,0.05,249
-0.15,0.02,0.97,0.00,0.01,0.04,249
-0.16,0.02,0.97,-0.01,-0.01,0.04,249
-0.16,0.02,0.97,-0.04,0.00,0.01,249
-0.16,0.02,0.97,-0.05,0.02,-0.05,250
-0.15,0.02,0.97,-0.03,-0.01,-0.05,249
-0.16,0.02,0.97,-0.01,-0.01,-0.02,249
-0.16,0.02,0.97,0.06,0.04,0.01,249
-0.15,0.02,0.97,0.05,0.04,0.01,249
-0.16,0.02,0.97,-0.04,0.01,0.01,249
-0.16,0.02,0.97,-0.04,-0.01,-0.01,249
-0.16,0.02,0.97,-0.01,-0.02,-0.02,249
-0.16,0.02,0.97,0.02,-0.00,-0.03,249
-0.15,0.02,0.97,0.03,0.01,-0.04,250
-0.15,0.02,0.97,0.03,0.01,-0.01,249
-0.16,0.02,0.97,-0.02,0.02,0.01,249
-0.16,0.02,0.97,-0.06,0.05,-0.00,249
-0.16,0.02,0.97,-0.04,0.07,-0.06,249
-0.16,0.02,0.97,-0.04,0.05,-0.04,249
-0.16,0.02,0.97,-0.03,0.00,0.02,249
-0.16,0.02,0.97,-0.02,-0.05,-0.02,249
-0.16,0.02,0.97,0.01,-0.02,-0.00,249
-0.16,0.02,0.97,0.03,-0.02,0.02,249
-0.16,0.02,0.97,-0.04,-0.03,-0.02,249
-0.16,0.02,0.97,-0.04,0.00,-0.02,249
-0.16,0.02,0.97,0.01,0.03,-0.01,249
-0.16,0.02,0.97,0.04,0.01,0.01,249
-0.16,0.02,0.97,0.02,0.00,0.01,249
-0.16,0.02,0.97,-0.05,0.06,0.01,249
-0.16,0.02,0.97,-0.07,0.04,0.03,249
-0.15,0.02,0.97,-0.04,0.04,-0.00,249
-0.16,0.02,0.97,-0.02,0.06,-0.03,249
-0.16,0.02,0.97,-0.00,-0.00,-0.05,249
-0.16,0.02,0.97,0.05,-0.01,0.02,249
-0.15,0.02,0.97,0.04,0.02,0.04,249
-0.15,0.02,0.97,-0.04,0.01,0.01,249
-0.15,0.02,0.97,-0.02,-0.03,0.04,249
-0.16,0.02,0.97,0.04,-0.01,0.01,249
-0.16,0.02,0.97,0.03,0.00,-0.02,249
-0.16,0.02,0.97,-0.02,0.00,-0.02,249
-0.15,0.02,0.97,-0.04,-0.00,-0.02,249
-0.15,0.02,0.97,-0.01,-0.02,-0.03,249
-0.16,0.02,0.97,0.03,-0.05,-0.07,249
-0.16,0.02,0.97,0.05,-0.03,-0.04,249
-0.15,0.02,0.97,0.03,0.01,0.03,249
-0.16,0.02,0.97,-0.03,0.02,0.04,249
-0.16,0.02,0.97,-0.05,0.00,0.03,249
-0.16,0.02,0.97,-0.01,-0.01,-0.01,249
-0.16,0.02,0.97,0.02,0.02,-0.05,250
-0.16,0.02,0.97,0.04,0.00,-0.06,249
-0.15,0.02,0.97,0.04,-0.03,-0.04,249
-0.16,0.02,0.97,-0.02,0.01,-0.00,249
-0.16,0.02,0.97,-0.05,0.04,0.01,249
-0.15,0.02,0.97,0.01,0.01,-0.02,249
-0.15,0.02,0.97,0.04,-0.04,-0.04,249
-0.15,0.02,0.97,0.02,-0.01,-0.04,249
-0.16,0.02,0.97,-0.01,0.02,-0.01,249
-0.16,0.02,0.97,-0.04,-0.01,0.02,249
-0.16,0.02,0.97,-0.01,-0.03,-0.02,249
-0.16,0.02,0.97,0.03,-0.05,-0.04,249
-0.16,0.02,0.97,-0.00,-0.04,-0.05,249
-0.16,0.02,0.97,-0.03,0.01,-0.04,249
-0.16,0.02,0.97,-0.00,-0.01,-0.01,249
-0.15,0.02,0.97,-0.00,-0.02,0.01,249
-0.15,0.02,0.97,-0.01,-0.01,-0.01,249
-0.16,0.02,0.97,0.00,0.01,-0.04,249
-0.16,0.02,0.97,0.01,0.03,-0.02,249
-0.16,0.02,0.97,-0.02,0.02,-0.01,249
-0.16,0.02,0.97,0.01,0.00,0.03,249
-0.15,0.02,0.97,0.04,-0.01,0.05,249
-0.15,0.02,0.97,0.05,0.02,-0.02,249
-0.16,0.02,0.97,0.00,0.04,-0.00,249
-0.16,0.02,0.97,-0.00,0.04,0.06,249
-0.16,0.02,0.97,0.00,0.04,0.03,249
-0.16,0.02,0.97,0.00,0.04,-0.01,249
-0.16,0.02,0.97,0.01,0.02,0.03,249
-0.16,0.02,0.97,-0.04,0.00,0.03,249
-0.16,0.02,0.97,-0.02,0.02,0.01,249
-0.16,0.02,0.97,0.01,0.02,-0.00,249
-0.16,0.02,0.97,0.02,-0.02,0.04,249
-0.16,0.02,0.97,0.04,-0.01,0.04,249
-0.16,0.02,0.97,0.02,0.00,0.02,249
-0.16,0.02,0.97,-0.04,-0.00,0.04,249
-0.16,0.02,0.97,-0.05,0.02,0.04,249
-0.16,0.02,0.97,-0.00,0.02,0.01,249
-0.16,0.02,0.97,-0.01,-0.00,-0.01,249
-0.15,0.02,0.97,-0.00,-0.01,-0.01,249
-0.15,0.02,0.97,-0.01,0.01,-0.01,249
-0.16,0.02,0.97,-0.02,0.00,-0.05,249
-0.15,0.02,0.97,-0.01,-0.02,-0.03,249
-0.15,0.02,0.97,0.01,-0.00,0.02,249
-0.15,0.02,0.97,0.01,0.01,0.03,249
-0.16,0.02,0.97,-0.03,0.02,-0.01,249
-0.16,0.02,0.97,-0.01,-0.01,-0.05,249
-0.16,0.02,0.97,0.02,-0.06,-0.05,249
-0.16,0.02,0.97,0.02,-0.04,-0.05,249
-0.16,0.02,0.97,0.01,0.00,0.01,249
-0.16,0.02,0.97,-0.03,-0.01,0.01,249
-0.16,0.02,0.97,-0.02,0.02,-0.04,249
-0.16,0.02,0.97,0.03,0.01,-0.02,249
-0.16,0.02,0.97,0.01,0.00,0.03,249
-0.16,0.02,0.97,-0.02,0.00,0.00,249
-0.16,0.02,0.97,-0.01,0.02,-0.04,249
-0.15,0.02,0.97,-0.02,0.03,-0.04,249
-0.16,0.02,0.97,-0.02,0.03,-0.02,249
-0.16,0.02,0.97,0.00,-0.00,-0.04,249
-0.15,0.02,0.97,0.08,-0.04,-0.05,249
-0.16,0.02,0.97,0.10,-0.03,-0.02,249
-0.16,0.02,0.97,0.01,0.00,-0.02,249
-0.16,0.02,0.97,-0.04,0.04,0.03,249
-0.16,0.02,0.97,-0.00,0.02,0.05,249
-0.16,0.02,0.97,0.03,-0.03,0.05,249
-0.16,0.02,0.97,-0.02,-0.04,-0.00,248
-0.16,0.02,0.97,-0.04,0.00,-0.02,249
-0.16,0.02,0.97,-0.03,-0.00,0.03,249
-0.15,0.02,0.97,-0.04,0.01,0.00,249
-0.15,0.02,0.97,-0.02,0.05,0.03,250
-0.15,0.02,0.97,-0.02,0.02,0.05,249
-0.16,0.02,0.97,-0.03,0.01,0.02,249
-0.16,0.02,0.97,0.01,0.01,0.00,249
-0.16,0.02,0.97,0.01,-0.04,0.03,249
-0.16,0.02,0.97,0.00,-0.01,0.03,249
-0.16,0.02,0.97,-0.01,0.04,0.01,249
-0.15,0.02,0.97,-0.03,0.04,0.03,249
-0.15,0.02,0.97,-0.02,0.01,0.02,249
-0.16,0.02,0.97,0.03,0.01,-0.00,249
-0.16,0.02,0.97,0.00,-0.00,-0.02,249
-0.16,0.02,0.97,-0.06,0.00,0.01,249
-0.15,0.02,0.97,-0.01,0.05,0.03,249
-0.16,0.02,0.97,0.01,0.04,-0.02,249
-0.16,0.02,0.97,-0.00,0.03,-0.03,249
-0.16,0.02,0.97,0.04,0.03,-0.02,249
-0.16,0.02,0.97,0.02,0.02,-0.02,249
-0.16,0.02,0.97,-0.04,0.02,-0.02,249
-0.15,0.02,0.97,-0.05,0.05,-0.02,249
-0.15,0.02,0.97,-0.01,0.05,-0.02,249
-0.16,0.02,0.97,0.00,-0.01,-0.02,249
-0.16,0.02,0.97,0.01,-0.04,0.03,249
-0.16,0.02,0.97,0.04,-0.03,0.05,249
-0.16,0.02,0.97,0.03,-0.02,0.02,249
-0.16,0.02,0.97,-0.04,0.00,-0.02,249
-0.16,0.02,0.97,-0.06,0.03,-0.01,249
-0.16,0.02,0.97,0.03,0.02,-0.01,249
-0.16,0.02,0.97,0.08,-0.00,-0.01,249
-0.16,0.02,0.97,0.01,-0.01,-0.04,249
-0.15,0.02,0.97,0.01,0.04,0.00,249
-0.15,0.02,0.97,0.01,0.07,0.05,249
-0.15,0.02,0.97,0.03,0.03,0.05,249
-0.16,0.02,0.97,0.03,0.01,0.04,249
-0.16,0.02,0.97,-0.00,0.01,-0.02,249
-0.16,0.02,0.97,-0.00,0.00,0.00,249
-0.16,0.02,0.97,0.01,-0.00,0.03,249
-0.16,0.02,0.97,0.03,-0.04,0.00,249
-0.16,0.02,0.97,0.01,-0.03,-0.00,249
-0.15,0.02,0.97,-0.02,-0.01,0.04,249
-0.16,0.02,0.97,-0.05,-0.01,0.04,249
-0.16,0.02,0.97,-0.02,0.03,0.01,249
-0.16,0.02,0.97,0.02,0.02,-0.00,249
-0.15,0.02,0.97,0.01,-0.00,0.00,249
-0.15,0.02,0.97,-0.00,-0.01,0.03,249
-0.16,0.02,0.97,-0.03,-0.03,0.01,249
-0.16,0.02,0.97,-0.04,0.01,0.02,249
-0.16,0.02,0.97,-0.03,0.03,0.01,249
-0.16,0.02,0.97,-0.01,0.00,-0.01,249
-0.16,0.02,0.97,0.04,0.00,-0.01,249
-0.16,0.02,0.97,0.02,0.00,-0.00,249
-0.16,0.02,0.97,-0.00,0.02,-0.04,249
-0.16,0.02,0.97,0.00,0.02,-0.05,249
-0.16,0.02,0.97,0.02,0.00,-0.05,249
-0.16,0.02,0.97,0.03,0.00,-0.07,249
-0.16,0.02,0.97,0.03,0.02,0.01,249
-0.15,0.02,0.97,0.03,0.00,0.04,249
-0.15,0.02,0.97,-0.01,0.00,-0.02,249
-0.16,0.02,0.97,-0.01,0.05,-0.02,249
-0.16,0.02,0.97,-0.00,0.03,-0.04,249
-0.15,0.02,0.97,0.01,-0.03,-0.03,249
-0.15,0.02,0.97,0.00,0.00,-0.00,249
-0.15,0.02,0.97,-0.07,0.03,0.01,249
-0.16,0.02,0.97,-0.04,0.05,-0.02,249
-0.16,0.02,0.97,-0.00,0.04,-0.05,249
-0.16,0.02,0.97,-0.05,0.00,-0.02,249
-0.16,0.02,0.97,-0.04,-0.00,0.04,249
-0.16,0.02,0.97,-0.01,-0.01,0.07,249
-0.16,0.02,0.97,-0.04,0.02,0.02,249
-0.16,0.02,0.97,-0.03,0.05,0.01,249
-0.16,0.02,0.97,-0.02,0.03,0.03,249
-0.16,0.02,0.97,-0.04,0.02,0.04,249
-0.16,0.02,0.97,-0.05,0.02,0.05,249
-0.16,0.02,0.97,-0.04,0.04,0.01,249
-0.15,0.02,0.97,0.03,0.03,-0.01,249
-0.16,0.02,0.97,0.05,0.00,0.00,249
-0.16,0.02,0.97,0.00,0.04,0.01,249
-0.16,0.02,0.97,-0.04,0.02,0.03,249
-0.15,0.02,0.97,-0.03,0.03,0.04,249
-0.16,0.02,0.97,-0.01,0.02,-0.04,249
-0.16,0.02,0.97,0.01,-0.01,-0.08,249
-0.16,0.02,0.97,0.01,0.00,-0.04,249
-0.16,0.02,0.97,-0.00,0.01,-0.02,249
-0.16,0.02,0.97,-0.01,0.03,-0.00,249
-0.16,0.02,0.97,0.00,0.06,0.03,249
-0.16,0.02,0.97,0.01,0.05,0.07,249
-0.15,0.02,0.97,0.03,0.02,0.03,249
-0.15,0.02,0.97,0.03,0.02,-0.01,249
-0.15,0.02,0.97,-0.03,0.04,0.02,249
-0.16,0.02,0.97,0.02,0.02,0.01,250
-0.16,0.02,0.97,0.09,-0.00,-0.02,249
-0.16,0.02,0.97,0.04,-0.02,-0.02,249
-0.16,0.02,0.97,-0.03,0.02,0.03,249
-0.16,0.02,0.97,-0.02,0.02,0.02,249
-0.16,0.02,0.97,0.04,0.00,-0.00,249
-0.16,0.02,0.97,0.04,0.02,0.01,249
-0.16,0.02,0.97,0.03,-0.03,-0.01,249
-0.16,0.02,0.97,-0.00,-0.01,-0.00,249
-0.16,0.02,0.97,-0.07,0.03,0.02,249
-0.16,0.02,0.97,-0.04,0.01,0.02,249
-0.16,0.02,0.97,0.01,-0.04,0.03,249
-0.16,0.02,0.97,0.01,-0.04,0.02,249
-0.16,0.02,0.97,-0.02,0.03,0.00,249
-0.16,0.02,0.97,-0.03,0.03,-0.01,249
-0.16,0.02,0.97,-0.04,0.00,0.02,249
-0.16,0.02,0.97,-0.01,0.02,0.01,249
-0.16,0.02,0.97,0.03,0.02,-0.01,249
-0.16,0.02,0.97,0.01,-0.00,0.03,249
-0.16,0.02,0.97,-0.01,-0.01,-0.02,249
-0.16,0.02,0.97,0.01,0.03,-0.04,249
-0.16,0.02,0.97,0.02,0.04,-0.02,249
-0.15,0.02,0.97,0.01,0.05,-0.01,249
-0.16,0.02,0.97,0.02,0.01,-0.01,249
-0.16,0.02,0.97,0.03,-0.02,0.00,249
-0.15,0.02,0.97,0.01,0.00,0.01,249
-0.15,0.02,0.97,-0.01,-0.02,-0.01,250
-0.16,0.02,0.97,0.03,0.00,-0.03,249
-0.15,0.02,0.97,0.04,0.02,-0.06,249
-0.16,0.02,0.97,0.04,0.00,-0.04,249
-0.16,0.02,0.97,0.03,0.01,-0.01,249
-0.16,0.02,0.97,-0.00,0.01,0.01,249
-0.16,0.02,0.97,-0.03,-0.01,0.01,249
-0.16,0.02,0.97,-0.01,-0.02,-0.01,249
-0.16,0.02,0.97,0.03,0.01,0.05,249
-0.15,0.02,0.97,0.01,-0.01,0.02,249
-0.15,0.02,0.97,-0.00,-0.03,-0.01,249
-0.15,0.02,0.97,0.01,0.00,0.04,249
-0.16,0.02,0.97,-0.02,0.00,0.04,249
-0.16,0.02,0.97,-0.02,0.04,0.07,249
-0.16,0.02,0.97,0.02,0.05,0.05,249
-0.16,0.02,0.97,0.01,0.01,-0.00,249
-0.16,0.02,0.97,0.00,0.02,-0.04,250
-0.15,0.02,0.97,-0.01,-0.02,-0.02,249
-0.16,0.02,0.97,-0.00,-0.00,-0.02,250
-0.16,0.02,0.97,0.05,0.03,-0.02,249
-0.15,0.02,0.97,0.07,0.03,-0.03,249
-0.15,0.02,0.97,0.04,0.01,0.00,249
-0.16,0.02,0.97,0.00,0.01,0.03,249
-0.16,0.02,0.97,0.01,0.00,0.01,249
-0.15,0.02,0.97,0.04,0.02,0.04,249
-0.15,0.02,0.97,0.05,0.03,0.03,249
-0.16,0.02,0.97,0.01,-0.00,-0.02,249
-0.16,0.02,0.97,-0.00,0.01,-0.05,249
-0.16,0.02,0.97,-0.03,-0.01,-0.05,249
-0.16,0.02,0.97,-0.04,-0.01,-0.05,249
-0.16,0.02,0.97,0.00,0.00,0.00,249
-0.16,0.02,0.97,0.01,0.00,0.04,249
-0.16,0.02,0.97,0.01,-0.02,0.03,249
-0.16,0.02,0.97,0.03,-0.04,0.00,249
-0.16,0.02,0.97,-0.01,-0.03,0.00,249
-0.16,0.02,0.97,-0.03,0.01,0.04,249
-0.16,0.02,0.97,0.01,0.00,0.00,249
-0.16,0.02,0.97,0.04,-0.00,-0.01,249
-0.16,0.02,0.97,0.03,0.03,0.03,249
-0.16,0.02,0.97,0.02,-0.01,0.02,249
-0.15,0.02,0.97,-0.01,-0.00,0.02,249
-0.15,0.02,0.97,-0.04,0.02,0.01,249
-0.16,0.02,0.97,-0.05,0.02,-0.02,249
-0.16,0.02,0.97,0.00,0.04,-0.04,249
-0.16,0.02,0.97,0.04,0.03,-0.03,249
-0.15,0.02,0.97,0.02,0.04,-0.04,249
-0.16,0.02,0.97,-0.02,0.00,-0.06,249
-0.16,0.02,0.97,0.01,-0.03,-0.04,249
-0.15,0.02,0.97,0.03,-0.01,0.02,249
-0.15,0.02,0.97,0.02,-0.03,0.03,249
-0.15,0.02,0.97,-0.02,-0.05,-0.01,249
-0.16,0.02,0.97,-0.04,-0.04,0.00,249
-0.16,0.02,0.97,0.00,-0.01,-0.02,249
-0.15,0.02,0.97,0.01,0.01,-0.02,249
-0.15,0.02,0.97,-0.00,-0.02,-0.00,249
-0.15,0.02,0.97,-0.02,-0.03,-0.04,249
-0.16,0.02,0.97,-0.03,0.02,0.01,249
-0.16,0.02,0.97,-0.02,0.04,0.06,249
-0.16,0.02,0.97,-0.02,0.03,0.03,249
-0.15,0.02,0.97,-0.02,0.03,-0.02,250
-0.16,0.02,0.97,-0.01,0.03,-0.04,249
-0.16,0.02,0.97,-0.00,0.01,-0.05,249
-0.16,0.02,0.97,0.01,0.00,-0.02,249
-0.15,0.02,0.97,0.01,0.02,0.04,249
-0.16,0.02,0.97,-0.04,0.02,-0.00,249
-0.16,0.02,0.97,-0.04,0.03,0.01,249
-0.16,0.02,0.97,0.03,0.04,0.03,249
-0.16,0.02,0.97,0.04,0.00,-0.02,249
-0.15,0.02,0.97,0.04,0.00,-0.00,249
-0.15,0.02,0.97,0.06,-0.00,0.01,249
-0.16,0.02,0.97,0.06,-0.02,0.01,249
-0.16,0.02,0.97,0.05,0.02,0.01,250
-0.16,0.02,0.97,0.03,0.04,0.02,249
-0.16,0.02,0.97,0.01,0.02,0.02,249
-0.16,0.02,0.97,0.02,-0.00,0.00,249
-0.16,0.02,0.97,0.02,-0.02,0.04,249
-0.16,0.02,0.97,0.01,-0.04,0.03,249
-0.16,0.02,0.97,-0.00,-0.04,0.03,249
-0.16,0.02,0.97,0.03,-0.02,-0.00,249
-0.16,0.02,0.97,0.04,-0.02,-0.06,249
-0.16,0.02,0.97,-0.02,0.02,-0.04,249
-0.16,0.02,0.97,-0.02,0.04,0.01,249
-0.16,0.02,0.97,-0.02,0.01,-0.00,249
-0.16,0.02,0.97,-0.00,-0.01,-0.02,249
-0.16,0.02,0.97,0.04,0.03,0.01,249
-0.16,0.02,0.97,0.02,0.01,-0.02,249
-0.16,0.02,0.97,0.02,-0.01,-0.02,249
-0.16,0.02,0.97,-0.03,0.04,-0.01,249
-0.16,0.02,0.97,-0.07,0.03,-0.04,249
-0.16,0.02,0.97,-0.01,-0.00,-0.02,249
-0.16,0.02,0.97,0.05,-0.02,0.04,249
-0.16,0.02,0.97,0.06,-0.02,0.02,249
-0.16,0.02,0.97,0.04,-0.01,-0.01,249
-0.16,0.02,0.97,0.01,0.03,0.01,249
-0.16,0.02,0.97,0.01,0.04,0.01,249
-0.16,0.02,0.97,0.03,-0.01,-0.00,249
-0.16,0.02,0.97,0.01,0.00,0.00,249
-0.16,0.02,0.97,0.01,0.03,-0.02,249
-0.16,0.02,0.97,0.01,-0.01,-0.04,249
-0.16,0.02,0.97,-0.00,-0.03,0.03,249
-0.16,0.02,0.97,0.01,-0.02,0.06,249
-0.16,0.02,0.97,-0.02,-0.05,0.04,249
-0.16,0.02,0.97,-0.03,-0.03,0.01,249
-0.16,0.02,0.97,-0.03,0.07,-0.02,249
-0.16,0.02,0.97,-0.04,0.06,-0.00,249
-0.15,0.02,0.97,-0.04,-0.00,0.00,249
-0.15,0.02,0.97,0.01,-0.00,0.01,249
-0.15,0.02,0.97,0.05,0.00,0.05,249
-0.15,0.02,0.97,0.03,-0.00,0.05,249
-0.15,0.02,0.97,-0.03,-0.00,0.01,249
-0.16,0.02,0.97,-0.01,-0.00,-0.02,249
-0.16,0.02,0.97,0.01,-0.02,-0.01,249
-0.16,0.02,0.97,-0.01,-0.03,0.01,249
-0.16,0.02,0.97,0.00,0.01,0.03,249
-0.16,0.02,0.97,-0.01,0.01,0.03,249
-0.16,0.02,0.97,-0.03,0.01,0.02,249
-0.16,0.02,0.97,-0.01,0.00,-0.01,249
-0.16,0.02,0.97,-0.01,-0.01,-0.01,249
-0.16,0.02,0.97,-0.04,-0.01,-0.01,249
-0.16,0.02,0.97,-0.01,-0.02,-0.04,249
-0.16,0.02,0.97,0.01,0.01,-0.04,249
-0.16,0.02,0.97,0.03,0.03,-0.00,249
-0.16,0.02,0.97,0.04,0.02,-0.02,249
-0.15,0.02,0.97,0.03,0.02,-0.03,249
-0.15,0.02,0.97,0.02,0.02,0.02,249
-0.16,0.02,0.97,0.00,0.02,0.04,249
-0.16,0.02,0.97,0.02,0.03,-0.01,249
-0.15,0.02,0.97,0.03,-0.00,-0.05,249
-0.15,0.02,0.97,0.00,-0.01,-0.03,249
-0.15,0.02,0.97,-0.04,0.02,-0.05,249
-0.15,0.02,0.97,-0.03,0.06,-0.04,249
-0.16,0.02,0.97,0.01,0.06,-0.02,249
-0.16,0.02,0.97,0.01,0.01,-0.04,249
-0.16,0.02,0.97,0.01,0.03,-0.02,249
-0.16,0.02,0.97,0.00,0.03,-0.00,249
-0.15,0.02,0.97,-0.04,0.00,-0.01,249
-0.16,0.02,0.97,0.02,0.02,-0.00,249
-0.16,0.02,0.97,0.05,0.03,0.03,249
-0.16,0.02,0.97,-0.01,0.01,0.02,249
-0.16,0.02,0.97,-0.05,-0.01,-0.01,249
-0.15,0.02,0.97,-0.08,-0.02,0.02,249
-0.15,0.02,0.97,-0.03,0.00,0.05,249
-0.15,0.02,0.97,0.03,0.03,0.04,249
-0.16,0.02,0.97,0.04,-0.00,0.02,249
-0.15,0.02,0.97,0.03,0.01,0.03,249
-0.15,0.02,0.97,0.01,0.04,-0.02,249
-0.16,0.02,0.97,-0.01,0.05,-0.04,249
-0.16,0.02,0.97,0.03,0.05,0.01,249
-0.16,0.02,0.97,0.05,0.02,0.01,249
-0.16,0.02,0.97,0.00,-0.00,-0.03,249
-0.16,0.02,0.97,-0.04,-0.00,-0.05,249
-0.16,0.02,0.97,-0.03,-0.00,-0.01,249
-0.16,0.02,0.97,0.03,-0.01,-0.00,249
-0.16,0.02,0.97,0.07,0.01,-0.01,249
-0.16,0.02,0.97,0.01,0.02,-0.01,249
-0.16,0.02,0.97,-0.04,0.04,-0.00,249
-0.16,0.02,0.97,0.01,0.08,0.02,249
-0.16,0.02,0.97,0.02,-0.02,0.02,249
-0.15,0.02,0.97,-0.01,-0.09,0.01,249
-0.15,0.02,0.97,0.02,-0.05,-0.02,249
-0.16,0.02,0.97,0.03,0.01,0.01,250
-0.16,0.02,0.97,-0.01,0.03,0.03,249
-0.16,0.02,0.97,-0.00,0.01,0.00,249
-0.16,0.02,0.97,0.04,0.01,0.03,249
-0.16,0.02,0.97,0.04,-0.00,-0.01,249
-0.15,0.02,0.97,0.03,-0.02,-0.05,249
-0.15,0.02,0.97,0.01,-0.03,-0.01,249
-0.16,0.02,0.97,0.01,-0.04,0.00,249
-0.15,0.02,0.97,0.04,0.00,-0.02,249
-0.15,0.02,0.97,0.01,0.01,-0.02,249
-0.16,0.02,0.97,-0.05,-0.02,-0.01,249
-0.16,0.02,0.97,-0.02,0.04,-0.02,249
-0.16,0.02,0.97,0.01,0.02,-0.00,249
-0.16,0.02,0.97,0.01,-0.01,-0.01,249
-0.16,0.02,0.97,0.05,0.03,0.01,249
-0.15,0.02,0.97,0.04,0.02,0.02,249
-0.15,0.02,0.97,0.03,-0.02,-0.01,249
-0.15,0.02,0.97,0.01,-0.00,0.00,249
-0.16,0.02,0.97,0.04,0.01,0.00,249
-0.16,0.02,0.97,0.05,-0.01,-0.01,249
-0.16,0.02,0.97,-0.01,0.01,-0.02,249
-0.15,0.02,0.97,-0.01,0.03,-0.02,249
-0.16,0.02,0.97,-0.01,0.01,0.02,249
-0.16,0.02,0.97,-0.02,-0.02,0.02,249
-0.16,0.02,0.97,0.01,-0.06,-0.00,249
-0.15,0.02,0.97,-0.01,-0.02,0.01,249
-0.16,0.02,0.97,-0.07,0.02,0.05,249
-0.16,0.02,0.97,-0.04,0.01,0.03,249
-0.15,0.02,0.97,-0.01,0.02,-0.02,249
-0.15,0.02,0.97,0.02,0.01,-0.02,249
-0.16,0.02,0.97,0.02,-0.00,-0.05,249
-0.16,0.02,0.97,-0.01,0.02,-0.07,249
-0.16,0.02,0.97,-0.02,0.04,-0.03,249
-0.16,0.02,0.97,-0.01,0.04,-0.01,249
-0.16,0.02,0.97,0.04,0.02,-0.01,249
-0.16,0.02,0.97,0.02,-0.02,-0.02,249
-0.16,0.02,0.97,-0.03,0.03,-0.04,249
-0.16,0.02,0.97,-0.05,0.05,-0.06,249
-0.16,0.02,0.97,-0.02,0.01,-0.03,249
-0.15,0.02,0.97,0.03,0.01,0.03,249
-0.15,0.02,0.97,0.03,0.01,0.03,249
-0.16,0.02,0.97,-0.01,-0.00,-0.01,249
-0.16,0.02,0.97,-0.03,-0.00,-0.01,249
-0.16,0.02,0.97,-0.04,0.01,0.01,249
-0.16,0.02,0.97,-0.05,0.04,0.05,249
-0.16,0.02,0.97,-0.02,0.05,0.05,249
-0.16,0.02,0.97,-0.01,-0.00,0.01,249
-0.16,0.02,0.97,0.00,0.04,-0.01,249
-0.15,0.02,0.97,-0.01,0.06,0.04,249
-0.16,0.02,0.97,-0.02,0.00,0.06,249
-0.16,0.02,0.97,0.01,-0.00,0.03,249
-0.15,0.02,0.97,0.01,0.04,0.01,249
-0.16,0.02,0.97,0.04,0.03,-0.02,249
-0.16,0.02,0.97,0.03,0.03,-0.02,249
-0.16,0.02,0.97,-0.01,0.03,0.01,249
-0.16,0.02,0.97,-0.01,0.01,-0.01,249
-0.16,0.02,0.97,0.03,0.01,-0.01,249
-0.16,0.02,0.97,0.01,0.01,0.01,249
-0.16,0.02,0.97,-0.01,0.05,0.01,249
-0.15,0.02,0.97,0.00,0.06,0.01,249
-0.16,0.02,0.97,-0.01,0.03,-0.01,249
-0.15,0.02,0.97,0.03,0.00,0.00,249
-0.15,0.02,0.97,0.06,0.01,0.03,249
-0.16,0.02,0.97,0.03,0.01,0.00,249
-0.16,0.02,0.97,-0.00,0.01,-0.02,249
-0.15,0.02,0.97,0.03,-0.02,-0.05,249
-0.15,0.02,0.97,0.01,-0.01,-0.06,249
-0.16,0.02,0.97,-0.03,0.04,-0.02,249
-0.16,0.02,0.97,-0.03,0.06,0.03,249
-0.15,0.02,0.97,-0.01,0.05,0.02,249
-0.15,0.02,0.97,0.04,-0.00,-0.03,249
-0.15,0.02,0.97,0.04,-0.04,-0.05,249
-0.15,0.02,0.97,0.02,-0.05,0.00,249
-0.16,0.02,0.97,0.03,-0.03,0.04,249
-0.16,0.02,0.97,0.02,0.03,-0.02,249
-0.16,0.02,0.97,0.04,0.01,-0.00,249
-0.16,0.02,0.97,-0.00,-0.04,0.02,249
-0.16,0.02,0.97,-0.01,-0.04,0.00,249
-0.15,0.02,0.97,-0.01,-0.00,-0.01,249
-0.15,0.02,0.97,-0.01,0.04,-0.02,249
-0.15,0.02,0.97,0.04,0.03,0.01,249
-0.15,0.02,0.97,-0.01,0.01,-0.04,249
-0.15,0.02,0.97,-0.05,0.01,-0.05,249
-0.15,0.02,0.97,-0.04,0.03,-0.02,249
-0.15,0.02,0.97,-0.04,0.03,0.01,249
-0.16,0.02,0.97,-0.01,0.01,0.03,249
-0.16,0.02,0.97,0.01,0.01,-0.01,249
-0.16,0.02,0.97,0.01,-0.01,-0.03,250
-0.16,0.02,0.97,0.01,0.01,-0.01,249
-0.16,0.02,0.97,-0.01,0.03,0.03,249
-0.16,0.02,0.97,-0.04,0.05,0.05,249
-0.16,0.02,0.97,0.01,0.04,0.04,249
-0.16,0.02,0.97,0.05,-0.01,0.01,249
-0.16,0.02,0.97,0.04,-0.03,-0.02,249
-0.16,0.02,0.97,0.04,-0.02,-0.03,249
-0.15,0.02,0.97,0.03,-0.00,-0.02,249
-0.15,0.02,0.97,-0.00,0.02,-0.00,249
-0.16,0.02,0.97,-0.01,0.02,0.01,249
-0.16,0.02,0.97,-0.02,-0.02,0.03,249
-0.16,0.02,0.97,-0.04,-0.05,0.03,249
-0.16,0.02,0.97,-0.04,-0.04,0.00,249
-0.15,0.02,0.97,-0.06,-0.00,0.01,249
-0.16,0.02,0.97,-0.04,-0.01,-0.00,249
-0.16,0.02,0.97,0.01,-0.02,-0.03,249
-0.15,0.02,0.97,-0.00,-0.05,-0.03,249
-0.15,0.02,0.97,-0.00,0.00,0.01,249
-0.16,0.02,0.97,0.06,0.05,0.02,249
-0.15,0.02,0.97,0.06,0.01,0.02,249
-0.16,0.02,0.97,-0.01,0.02,0.02,249
-0.16,0.02,0.97,-0.03,0.04,0.01,249
-0.15,0.02,0.97,-0.01,0.04,0.03,249
-0.15,0.02,0.97,0.00,0.04,0.00,249
-0.16,0.02,0.97,0.02,0.03,0.01,249
-0.16,0.02,0.97,0.06,-0.00,-0.00,249
-0.16,0.02,0.97,0.00,-0.02,-0.02,249
-0.16,0.02,0.97,-0.06,-0.01,-0.00,249
-0.15,0.02,0.97,-0.02,0.02,0.02,249
-0.15,0.02,0.97,0.04,0.03,-0.00,249
-0.16,0.02,0.97,0.03,0.02,-0.01,249
-0.16,0.02,0.97,0.00,0.02,0.01,249
-0.16,0.02,0.97,-0.01,0.01,0.01,249
-0.16,0.02,0.97,-0.01,-0.01,0.03,249
-0.15,0.02,0.97,0.00,0.03,0.03,249
-0.15,0.02,0.97,0.01,0.06,-0.03,250
-0.15,0.02,0.97,-0.04,0.03,-0.01,249
-0.15,0.02,0.97,-0.04,0.04,0.05,250
-0.16,0.02,0.97,0.01,0.06,0.04,249
-0.16,0.02,0.97,-0.01,0.03,0.03,249
-0.16,0.02,0.97,-0.00,-0.01,-0.00,249
-0.16,0.02,0.97,-0.01,-0.01,-0.01,249
-0.15,0.02,0.97,-0.01,-0.01,-0.01,249
-0.15,0.02,0.97,0.00,0.03,-0.04,249
-0.16,0.02,0.97,0.01,0.02,-0.07,249
-0.15,0.02,0.97,0.02,0.02,-0.05,249
-0.15,0.02,0.97,-0.01,0.01,-0.00,249
-0.16,0.02,0.97,-0.02,0.01,-0.03,249
-0.16,0.02,0.97,0.01,0.03,0.02,249
-0.16,0.02,0.97,0.03,0.02,0.06,249
-0.15,0.02,0.97,0.04,0.06,-0.01,249
-0.15,0.02,0.97,0.04,0.07,-0.02,250
-0.16,0.02,0.97,0.02,0.04,0.02,249
-0.16,0.02,0.97,-0.04,0.03,0.01,249
-0.15,0.02,0.97,-0.00,0.03,-0.01,249
-0.16,0.02,0.97,0.02,0.02,0.01,249
-0.16,0.02,0.97,0.04,0.01,-0.01,249
-0.16,0.02,0.97,0.06,-0.01,-0.02,249
-0.16,0.02,0.97,0.01,-0.01,0.05,249
-0.16,0.02,0.97,-0.04,0.01,0.02,249
-0.16,0.02,0.97,-0.06,0.04,-0.01,249
-0.16,0.02,0.97,-0.01,0.02,0.01,249
-0.16,0.02,0.97,0.06,-0.04,-0.01,249
-0.16,0.02,0.97,0.06,0.00,-0.00,249
-0.16,0.02,0.97,-0.01,0.01,-0.01,249
-0.16,0.02,0.97,-0.02,-0.02,0.03,249
-0.16,0.02,0.97,0.02,-0.01,0.05,249
-0.16,0.02,0.97,0.03,0.01,0.01,249
-0.16,0.02,0.97,0.04,0.01,0.01,249
-0.16,0.02,0.97,-0.01,-0.01,0.01,249
-0.16,0.02,0.97,-0.04,-0.00,0.03,249
-0.16,0.02,0.97,-0.01,0.04,0.03,249
-0.16,0.02,0.97,-0.01,0.03,-0.00,250
-0.16,0.02,0.97,-0.01,-0.00,0.01,249
-0.16,0.02,0.97,-0.01,0.01,0.02,249
-0.16,0.02,0.97,-0.02,0.00,-0.01,249
-0.16,0.02,0.97,-0.01,-0.01,0.01,249
-0.16,0.02,0.97,0.02,0.01,0.04,249
-0.16,0.02,0.97,0.03,0.01,0.02,249
-0.16,0.02,0.97,-0.01,0.01,0.02,249
-0.16,0.02,0.97,0.01,0.02,0.01,249
-0.16,0.02,0.97,0.01,0.01,-0.03,249
-0.16,0.02,0.97,-0.04,0.01,-0.00,249
-0.16,0.02,0.97,-0.02,-0.01,0.07,249
-0.15,0.02,0.97,-0.00,-0.03,0.09,249
-0.15,0.02,0.97,-0.01,0.02,0.05,249
-0.16,0.02,0.97,-0.01,0.08,-0.03,249
-0.16,0.02,0.97,0.01,0.04,-0.05,249
-0.16,0.02,0.97,0.00,0.00,0.01,249
-0.16,0.02,0.97,-0.01,0.02,0.05,249
-0.16,0.02,0.97,-0.03,0.03,0.04,249
-0.16,0.02,0.97,-0.03,0.01,0.02,249
-0.16,0.02,0.97,-0.00,0.00,-0.01,249
-0.16,0.02,0.97,0.01,0.00,0.01,249
-0.16,0.02,0.97,0.01,-0.01,0.01,249
-0.16,0.02,0.97,-0.00,-0.02,-0.04,249
-0.15,0.02,0.97,-0.02,0.00,-0.00,249
-0.16,0.02,0.97,0.01,-0.02,0.01,249
-0.16,0.02,0.97,0.04,-0.04,0.01,249
-0.16,0.02,0.97,0.04,-0.01,-0.02,249
-0.16,0.02,0.97,0.01,0.04,-0.03,249
-0.16,0.02,0.97,-0.02,0.04,-0.02,249
-0.16,0.02,0.97,-0.04,0.03,-0.01,249
-0.16,0.02,0.97,-0.02,0.04,-0.01,249
-0.15,0.02,0.97,-0.00,0.02,-0.02,249
-0.16,0.02,0.97,-0.00,0.01,0.01,249
-0.16,0.02,0.97,-0.01,0.02,0.03,249
-0.16,0.02,0.97,-0.01,0.06,0.01,249
-0.15,0.02,0.97,0.04,0.05,0.01,249
-0.16,0.02,0.97,0.02,0.01,0.01,249
-0.16,0.02,0.97,-0.01,0.00,-0.02,249
-0.16,0.02,0.97,0.02,0.01,-0.05,249
-0.16,0.02,0.97,0.04,0.02,-0.02,249
-0.16,0.02,0.97,0.06,-0.01,0.00,249
-0.16,0.02,0.97,0.06,-0.02,0.02,249
-0.16,0.02,0.97,0.03,-0.01,0.06,249
-0.16,0.02,0.97,-0.02,0.01,0.02,249
-0.15,0.02,0.97,-0.08,0.04,0.01,249
-0.16,0.02,0.97,-0.04,0.02,0.01,249
-0.15,0.02,0.97,-0.00,-0.01,-0.01,249
-0.15,0.02,0.97,0.00,-0.04,-0.00,249
-0.15,0.02,0.97,0.04,-0.05,-0.02,249
-0.15,0.02,0.97,0.02,-0.04,-0.03,249
-0.16,0.02,0.97,-0.04,-0.01,-0.00,249
-0.16,0.02,0.97,-0.02,-0.01,0.02,249
-0.16,0.02,0.97,0.04,-0.03,0.01,249
-0.16,0.02,0.97,0.04,-0.01,0.01,249
-0.16,0.02,0.97,-0.01,-0.01,-0.03,249
-0.16,0.02,0.97,-0.05,-0.00,-0.03,249
-0.16,0.02,0.97,-0.02,-0.00,0.01,249
-0.16,0.02,0.97,-0.00,-0.02,0.01,249
-0.16,0.02,0.97,0.00,-0.02,0.02,249
-0.16,0.02,0.97,-0.01,-0.03,0.04,249
-0.16,0.02,0.97,-0.03,0.00,0.03,249
-0.16,0.02,0.97,-0.02,-0.02,0.00,249
-0.16,0.02,0.97,-0.00,-0.01,0.01,249
-0.16,0.02,0.97,-0.02,0.04,-0.05,249
-0.16,0.02,0.97,-0.03,0.04,-0.05,249
-0.15,0.02,0.97,-0.02,0.05,0.03,249
-0.16,0.02,0.97,-0.05,0.02,0.01,249
-0.16,0.02,0.97,-0.02,-0.02,-0.00,249
-0.15,0.02,0.97,0.01,-0.03,0.03,249
-0.16,0.02,0.97,-0.01,-0.03,-0.00,249
-0.16,0.02,0.97,0.01,-0.02,-0.02,249
-0.16,0.02,0.97,0.03,-0.01,-0.00,249
-0.16,0.02,0.97,0.03,-0.01,0.01,249
-0.16,0.02,0.97,0.01,-0.03,-0.01,249
-0.16,0.02,0.97,-0.02,0.00,-0.05,249
-0.15,0.02,0.97,-0.03,0.02,-0.00,249
-0.15,0.02,0.97,-0.01,-0.02,-0.00,249
-0.16,0.02,0.97,0.01,-0.01,-0.01,249
-0.16,0.02,0.97,0.02,-0.04,-0.05,249
-0.15,0.02,0.97,0.01,-0.04,-0.07,249
-0.15,0.02,0.97,-0.04,0.00,-0.01,249
-0.15,0.02,0.97,-0.03,0.02,-0.01,249
-0.15,0.02,0.97,-0.03,0.02,-0.02,249
-0.15,0.02,0.97,-0.02,-0.01,-0.01,249
-0.16,0.02,0.97,0.03,-0.04,0.01,249
-0.16,0.02,0.97,0.00,-0.04,-0.00,249
-0.15,0.02,0.97,-0.04,-0.00,0.01,249
-0.16,0.02,0.97,-0.03,0.03,0.04,249
-0.16,0.02,0.97,-0.03,-0.02,0.00,249
-0.16,0.02,0.97,-0.01,-0.01,0.01,249
-0.16,0.02,0.97,0.01,0.01,0.03,249
-0.16,0.02,0.97,-0.04,-0.03,-0.02,249
-0.16,0.02,0.97,-0.02,0.03,-0.00,249
-0.16,0.02,0.97,0.01,0.04,0.05,249
-0.16,0.02,0.97,0.02,0.01,0.01,249
-0.16,0.02,0.97,0.00,-0.04,-0.03,249
-0.16,0.02,0.97,-0.01,-0.04,-0.04,249
-0.16,0.02,0.97,0.01,-0.02,-0.00,249
-0.16,0.02,0.97,0.03,-0.03,0.03,249
-0.16,0.02,0.97,0.01,-0.01,0.01,249
-0.16,0.02,0.97,-0.01,0.01,0.01,249
-0.16,0.02,0.97,-0.02,0.01,-0.02,249
-0.16,0.02,0.97,-0.04,-0.00,-0.03,249
-0.16,0.02,0.97,-0.02,-0.02,0.02,249
-0.16,0.02,0.97,0.01,-0.04,0.01,249
-0.16,0.02,0.97,0.03,-0.06,0.03,249
-0.16,0.02,0.97,0.03,-0.01,0.03,249
-0.15,0.02,0.97,0.02,0.04,0.01,249
-0.16,0.02,0.97,-0.00,0.04,0.00,249
-0.16,0.02,0.97,-0.02,0.03,0.01,249
-0.16,0.02,0.97,-0.03,-0.01,-0.02,249
-0.16,0.02,0.97,-0.04,-0.02,-0.01,249
-0.16,0.02,0.97,-0.01,-0.01,-0.01,249
-0.16,0.02,0.97,0.03,0.00,-0.05,249
-0.15,0.02,0.97,0.05,0.01,-0.03,249
-0.15,0.02,0.97,0.02,-0.01,0.02,249
-0.16,0.02,0.97,0.00,-0.02,0.02,249
-0.15,0.02,0.97,0.02,-0.03,0.02,249
-0.16,0.02,0.97,-0.01,-0.00,0.04,249
-0.16,0.02,0.97,-0.03,0.01,0.02,249
-0.16,0.02,0.97,0.02,-0.01,-0.01,249
-0.16,0.02,0.97,0.03,-0.01,-0.04,249
-0.16,0.02,0.97,0.00,-0.01,-0.03,249
-0.16,0.02,0.97,-0.01,-0.01,0.01,249
-0.16,0.02,0.97,-0.01,0.01,0.04,249
-0.16,0.02,0.97,-0.01,0.04,0.03,249
-0.16,0.02,0.97,-0.01,0.01,0.00,249
-0.15,0.02,0.97,0.01,-0.02,0.01,249
-0.16,0.02,0.97,-0.01,-0.00,0.01,249
-0.16,0.02,0.97,0.02,0.03,-0.01,249
-0.16,0.02,0.97,0.05,0.02,0.00,249
-0.15,0.02,0.97,0.02,0.01,0.01,249
-0.16,0.02,0.97,0.03,-0.03,0.02,249
-0.16,0.02,0.97,0.04,-0.04,0.02,249
-0.15,0.02,0.97,0.06,-0.03,0.04,249
-0.15,0.02,0.97,0.06,-0.02,0.04,249
-0.15,0.02,0.97,0.02,-0.01,-0.02,249
-0.15,0.02,0.97,-0.01,0.03,-0.03,249
-0.16,0.02,0.97,-0.00,0.02,0.02,250
-0.15,0.02,0.97,0.01,-0.02,0.03,249
-0.15,0.02,0.97,-0.00,-0.04,0.01,249
-0.15,0.02,0.97,0.01,-0.04,0.02,249
-0.15,0.02,0.97,0.01,0.03,-0.00,249
-0.16,0.02,0.97,-0.02,0.06,-0.00,249
-0.16,0.02,0.97,-0.04,0.04,-0.00,249
-0.16,0.02,0.97,0.01,-0.00,-0.05,249
-0.15,0.02,0.97,0.05,-0.03,-0.05,249
-0.16,0.02,0.97,0.01,-0.04,0.02,249
-0.16,0.02,0.97,-0.01,-0.01,0.04,249
-0.16,0.02,0.97,-0.01,0.01,0.01,249
-0.16,0.02,0.97,0.03,-0.02,-0.01,249
-0.16,0.02,0.97,0.03,-0.01,-0.01,249
-0.16,0.02,0.97,0.01,0.01,-0.01,249
-0.16,0.02,0.97,0.02,-0.01,-0.01,249
-0.16,0.02,0.97,-0.03,-0.03,-0.00,249
-0.15,0.02,0.97,-0.06,0.01,0.01,249
-0.15,0.02,0.97,0.00,0.04,0.01,249
-0.16,0.02,0.97,0.05,-0.02,-0.04,249
-0.16,0.02,0.97,-0.04,-0.00,-0.01,249
-0.16,0.02,0.97,-0.06,0.04,0.00,249
-0.16,0.02,0.97,-0.02,0.02,-0.02,249
-0.16,0.02,0.97,0.00,0.01,0.01,249
-0.16,0.02,0.97,0.02,-0.01,0.01,249
-0.16,0.02,0.97,0.04,-0.03,-0.00,249
-0.16,0.02,0.97,-0.01,-0.01,0.05,249
-0.16,0.02,0.97,-0.09,0.03,0.07,249
-0.16,0.02,0.97,-0.04,0.01,0.06,249
-0.16,0.02,0.97,-0.00,-0.01,0.06,249
-0.16,0.02,0.97,-0.02,0.01,0.05,249
-0.16,0.02,0.97,-0.03,0.04,0.04,249
-0.16,0.02,0.97,0.01,0.03,-0.02,249
-0.16,0.02,0.97,0.04,-0.02,-0.01,249
-0.16,0.02,0.97,0.02,-0.03,0.03,249
-0.16,0.02,0.97,0.01,-0.01,0.02,249
-0.16,0.02,0.97,0.02,0.03,0.01,249
-0.16,0.02,0.97,0.03,-0.00,-0.00,249
-0.16,0.02,0.97,0.01,-0.06,-0.02,249
-0.16,0.02,0.97,-0.00,-0.03,-0.03,249
-0.15,0.02,0.97,0.03,0.03,-0.03,249
-0.16,0.02,0.97,0.05,0.06,-0.01,249
-0.16,0.02,0.97,0.01,0.05,-0.02,249
-0.16,0.02,0.97,-0.01,0.04,-0.04,249
-0.16,0.02,0.97,0.02,0.04,-0.02,249
-0.16,0.02,0.97,-0.01,0.04,-0.04,249
-0.15,0.02,0.97,-0.04,0.03,-0.05,249
-0.16,0.02,0.97,-0.01,0.02,-0.06,249
-0.16,0.02,0.97,0.01,0.02,-0.07,249
-0.16,0.02,0.97,0.00,-0.01,-0.03,249
-0.16,0.02,0.97,0.01,-0.02,0.02,249
-0.16,0.02,0.97,-0.01,-0.02,0.00,249
-0.16,0.02,0.97,-0.01,0.02,0.03,249
-0.16,0.02,0.97,0.03,0.04,0.05,249
-0.16,0.02,0.97,0.03,-0.04,-0.02,249
-0.15,0.02,0.97,0.04,-0.05,-0.05,249
-0.16,0.02,0.97,0.05,-0.02,-0.03,249
-0.16,0.02,0.97,0.01,0.01,-0.02,249
-0.16,0.02,0.97,-0.01,0.01,-0.01,249
-0.15,0.02,0.97,0.00,-0.02,0.01,249
-0.16,0.02,0.97,0.00,0.01,-0.01,249
-0.16,0.02,0.97,0.01,0.03,-0.06,249
-0.15,0.02,0.97,-0.01,0.06,-0.05,249
-0.15,0.02,0.97,-0.04,0.06,0.04,249
-0.16,0.02,0.97,-0.04,0.02,0.03,249
-0.16,0.02,0.97,-0.03,0.02,-0.02,249
-0.16,0.02,0.97,0.02,-0.01,0.02,249
-0.16,0.02,0.97,0.03,-0.02,0.00,250
-0.16,0.02,0.97,0.02,0.00,0.01,249
-0.16,0.02,0.97,0.01,0.04,0.01,249
-0.16,0.02,0.97,0.00,0.02,-0.01,249
-0.16,0.02,0.97,0.01,-0.00,0.01,249
-0.15,0.02,0.97,-0.01,0.00,0.01,249
-0.15,0.02,0.97,-0.03,0.02,0.01,249
-0.15,0.02,0.97,-0.02,0.01,-0.02,250
-0.16,0.02,0.97,0.00,0.01,-0.03,249
-0.16,0.02,0.97,0.03,-0.02,-0.01,249
-0.16,0.02,0.97,0.02,0.00,-0.01,249
-0.16,0.02,0.97,-0.01,0.04,-0.02,249
-0.16,0.02,0.97,0.01,0.05,-0.00,249
-0.16,0.02,0.97,0.01,0.04,-0.02,249
-0.16,0.02,0.97,0.04,-0.01,-0.04,249
-0.15,0.02,0.97,0.01,-0.03,-0.03,249
-0.16,0.02,0.97,-0.02,-0.01,-0.00,249
-0.16,0.02,0.97,0.01,-0.01,0.02,249
-0.16,0.02,0.97,-0.01,-0.00,-0.00,249
-0.16,0.02,0.97,-0.02,0.02,0.00,249
-0.16,0.02,0.97,-0.02,-0.01,0.03,249
-0.16,0.02,0.97,-0.01,-0.01,0.04,249
-0.16,0.02,0.97,0.01,0.02,0.00,249
-0.16,0.02,0.97,0.02,-0.00,-0.07,249
-0.16,0.02,0.97,-0.00,0.01,-0.03,249
-0.16,0.02,0.97,0.01,-0.00,0.03,249
-0.16,0.02,0.97,-0.01,0.01,-0.00,249
-0.16,0.02,0.97,-0.01,0.02,-0.04,249
-0.16,0.02,0.97,0.00,-0.01,0.01,249
-0.15,0.02,0.97,-0.02,-0.04,0.04,249
-0.16,0.02,0.97,0.01,-0.05,-0.00,249
-0.16,0.02,0.97,0.05,-0.02,0.01,249
-0.16,0.02,0.97,0.01,0.02,0.01,249
-0.15,0.02,0.97,-0.02,0.03,0.03,249
-0.16,0.02,0.97,-0.03,0.04,0.04,249
-0.16,0.02,0.97,-0.01,0.02,-0.03,249
-0.16,0.02,0.97,-0.00,0.01,-0.06,249
-0.15,0.02,0.97,-0.01,-0.01,-0.04,249
-0.15,0.02,0.97,-0.05,-0.04,0.01,249
-0.15,0.02,0.97,-0.04,-0.02,0.01,249
-0.15,0.02,0.97,0.01,0.00,-0.00,249
-0.16,0.02,0.97,0.01,0.01,0.01,249
-0.16,0.02,0.97,-0.01,-0.02,-0.00,249
-0.16,0.02,0.97,-0.01,-0.02,0.02,249
-0.15,0.02,0.97,0.03,-0.01,-0.01,249
-0.15,0.02,0.97,0.03,-0.02,-0.02,249
-0.16,0.02,0.97,0.02,-0.02,0.03,249
-0.16,0.02,0.97,-0.01,0.02,0.05,249
-0.16,0.02,0.97,-0.02,0.04,0.00,249
-0.16,0.02,0.97,-0.01,0.03,-0.02,250
-0.16,0.02,0.97,-0.04,0.04,0.01,249
-0.16,0.02,0.97,-0.04,0.06,0.04,249
-0.16,0.02,0.97,0.01,0.02,0.01,249
-0.16,0.02,0.97,0.04,-0.04,-0.02,249
-0.16,0.02,0.97,0.01,-0.04,-0.00,249
-0.15,0.02,0.97,-0.02,0.02,-0.00,249
-0.15,0.02,0.97,-0.03,0.03,0.00,249
-0.16,0.02,0.97,0.01,-0.00,-0.02,249
-0.16,0.02,0.97,0.03,-0.03,-0.02,249
-0.16,0.02,0.97,-0.00,-0.04,0.01,249
-0.16,0.02,0.97,-0.01,-0.04,0.02,249
-0.16,0.02,0.97,-0.01,-0.01,0.02,249
-0.16,0.02,0.97,0.00,0.04,0.02,249
-0.16,0.02,0.97,0.00,0.02,0.01,249
-0.15,0.02,0.97,0.01,-0.02,0.02,249
-0.16,0.02,0.97,-0.02,0.01,0.01,249
-0.16,0.02,0.97,-0.01,0.02,-0.02,249
-0.16,0.02,0.97,0.01,0.04,0.01,249
-0.16,0.02,0.97,0.01,0.00,0.01,249
-0.16,0.02,0.97,0.00,-0.02,0.01,249
-0.16,0.02,0.97,-0.02,0.05,-0.00,249
-0.16,0.02,0.97,-0.05,0.03,-0.02,249
-0.16,0.02,0.97,-0.04,-0.04,-0.02,249
-0.16,0.02,0.97,-0.00,-0.04,-0.00,249
-0.15,0.02,0.97,0.03,0.00,-0.00,249
-0.15,0.02,0.97,0.03,0.02,-0.04,249
-0.16,0.02,0.97,-0.01,-0.00,-0.05,249
-0.16,0.02,0.97,-0.01,-0.02,-0.04,249
-0.16,0.02,0.97,0.03,0.00,0.01,249
-0.16,0.02,0.97,-0.00,0.01,0.04,249
-0.16,0.02,0.97,-0.00,0.02,0.02,249
-0.16,0.02,0.97,0.03,0.02,0.03,249
-0.16,0.02,0.97,0.01,0.03,0.05,250
-0.16,0.02,0.97,-0.01,-0.02,0.02,249
-0.15,0.02,0.97,0.01,-0.04,0.02,249
-0.15,0.02,0.97,-0.01,0.04,0.03,249
-0.16,0.02,0.97,0.01,0.05,0.01,249
-0.15,0.02,0.97,0.05,0.03,0.03,249
-0.16,0.02,0.97,0.06,-0.01,0.03,249
-0.16,0.02,0.97,0.03,-0.01,-0.01,249
-0.16,0.02,0.97,0.01,0.01,-0.01,249
-0.16,0.02,0.97,0.02,0.01,0.01,249
-0.16,0.02,0.97,0.01,-0.05,-0.01,249
-0.16,0.02,0.97,0.02,-0.04,-0.02,249
-0.16,0.02,0.97,0.04,0.02,0.00,249
-0.16,0.02,0.97,-0.00,0.03,-0.00,249
-0.16,0.02,0.97,-0.03,0.02,-0.05,249
-0.16,0.02,0.97,-0.02,0.03,-0.00,249
-0.16,0.02,0.97,-0.01,0.03,0.04,249
-0.16,0.02,0.97,0.05,-0.02,-0.01,249
-0.16,0.02,0.97,0.07,0.01,0.01,249
-0.16,0.02,0.97,0.02,0.05,0.01,249
-0.16,0.02,0.97,-0.01,0.01,-0.02,249
-0.16,0.02,0.97,-0.02,-0.03,-0.01,249
-0.16,0.02,0.97,0.01,0.01,-0.00,249
-0.16,0.02,0.97,0.01,0.04,0.02,249
-0.16,0.02,0.97,-0.04,0.03,0.05,249
-0.16,0.02,0.97,-0.04,0.02,0.02,249
-0.16,0.02,0.97,0.02,0.04,-0.00,249
-0.16,0.02,0.97,0.04,0.02,0.03,249
-0.15,0.02,0.97,0.02,-0.04,0.04,249
-0.16,0.02,0.97,-0.01,-0.04,-0.00,249
-0.16,0.02,0.97,0.01,-0.01,-0.02,249
-0.16,0.02,0.97,0.02,0.01,0.00,249
-0.16,0.02,0.97,-0.02,-0.01,0.01,249
-0.16,0.02,0.97,-0.01,-0.02,0.01,249
-0.15,0.02,0.97,0.02,-0.04,0.01,249
-0.16,0.02,0.97,0.01,0.00,-0.00,249
-0.16,0.02,0.97,-0.00,0.04,-0.01,249
-0.16,0.02,0.97,-0.01,-0.01,0.04,249
-0.16,0.02,0.97,0.00,-0.01,0.04,249
-0.15,0.02,0.97,0.00,0.01,-0.01,249
-0.16,0.02,0.97,0.01,0.01,-0.07,249
-0.16,0.02,0.97,0.06,0.02,-0.10,249
-0.16,0.02,0.97,0.06,0.01,-0.02,249
-0.16,0.02,0.97,0.02,-0.03,0.03,249
-0.15,0.02,0.97,0.01,-0.01,0.01,249
-0.15,0.02,0.97,-0.05,-0.02,-0.00,249
-0.16,0.02,0.97,-0.04,-0.01,-0.00,249
-0.16,0.02,0.97,0.00,0.04,0.01,249
-0.16,0.02,0.97,-0.01,0.00,0.01,249
-0.16,0.02,0.97,0.02,-0.00,-0.00,249
-0.16,0.02,0.97,0.03,0.00,-0.03,249
-0.16,0.02,0.97,-0.04,0.01,-0.03,249
-0.16,0.02,0.97,-0.02,0.02,-0.01,249
-0.16,0.02,0.97,0.04,0.01,0.03,249
-0.16,0.02,0.97,0.03,0.02,0.00,249
-0.15,0.02,0.97,-0.01,0.04,-0.05,249
-0.15,0.02,0.97,-0.03,0.04,-0.04,249
-0.16,0.02,0.97,0.02,0.01,0.00,249
-0.16,0.02,0.97,0.04,-0.02,-0.01,249
-0.16,0.02,0.97,-0.00,0.00,-0.04,249
-0.15,0.02,0.97,-0.01,0.04,-0.02,249
-0.15,0.02,0.97,-0.01,0.04,-0.01,249
-0.15,0.02,0.97,0.02,0.01,-0.02,249
-0.16,0.02,0.97,0.04,-0.05,-0.05,249
-0.16,0.02,0.97,-0.02,-0.06,-0.04,250
-0.15,0.02,0.97,-0.04,-0.02,0.03,249
-0.15,0.02,0.97,-0.03,0.01,0.01,249
-0.16,0.02,0.97,0.02,0.02,-0.01,249
-0.16,0.02,0.97,0.06,-0.00,-0.00,249
-0.15,0.02,0.97,0.03,-0.00,-0.02,249
-0.15,0.02,0.97,-0.02,0.03,-0.02,249
-0.15,0.02,0.97,-0.04,0.04,0.03,249
-0.15,0.02,0.97,-0.01,0.01,0.04,249
-0.16,0.02,0.97,0.05,-0.05,0.00,249
-0.16,0.02,0.97,0.06,-0.06,-0.01,249
-0.16,0.02,0.97,0.02,-0.01,0.03,249
-0.16,0.02,0.97,-0.03,0.03,0.02,249
-0.16,0.02,0.97,-0.04,0.06,-0.02,249
-0.16,0.02,0.97,0.02,0.03,-0.00,249
-0.15,0.02,0.97,0.06,-0.02,0.00,249
-0.16,0.02,0.97,0.05,-0.02,-0.02,249
-0.16,0.02,0.97,0.02,-0.00,0.02,249
-0.15,0.02,0.97,-0.02,0.04,0.02,249
-0.15,0.02,0.97,0.00,0.04,0.02,249
-0.15,0.02,0.97,0.03,0.01,0.00,249
-0.15,0.02,0.97,0.02,-0.01,-0.04,249
-0.16,0.02,0.97,-0.01,-0.05,-0.00,249
-0.16,0.02,0.97,-0.00,-0.02,0.01,249
-0.16,0.02,0.97,0.01,0.02,0.01,249
-0.16,0.02,0.97,0.01,0.03,-0.01,249
-0.16,0.02,0.97,-0.02,0.02,-0.03,249
-0.16,0.02,0.97,-0.03,-0.02,-0.02,249
-0.15,0.02,0.97,-0.04,0.01,-0.02,249
-0.16,0.02,0.97,-0.04,0.06,-0.01,249
-0.16,0.02,0.97,-0.02,0.05,-0.00,249
-0.16,0.02,0.97,0.01,0.02,-0.01,249
-0.16,0.02,0.97,0.00,-0.02,-0.04,249
-0.16,0.02,0.97,0.00,-0.01,-0.04,249
-0.16,0.02,0.97,0.03,0.05,-0.01,249
-0.15,0.02,0.97,0.02,0.01,0.03,249
-0.15,0.02,0.97,0.01,-0.06,0.03,249
-0.16,0.02,0.97,0.00,-0.03,0.01,249
-0.16,0.02,0.97,-0.02,0.02,-0.01,249
-0.16,0.02,0.97,-0.01,0.02,-0.00,249
-0.16,0.02,0.97,0.06,-0.03,-0.00,249
-0.16,0.02,0.97,0.04,-0.04,-0.02,249
-0.16,0.02,0.97,-0.02,-0.03,-0.01,249
-0.16,0.02,0.97,-0.02,0.01,0.01,249
-0.16,0.02,0.97,0.03,0.04,0.04,249
-0.16,0.02,0.97,0.02,-0.01,0.02,249
-0.16,0.02,0.97,-0.01,-0.07,0.03,249
-0.16,0.02,0.97,0.01,-0.05,0.03,249
-0.16,0.02,0.97,0.02,0.01,0.03,249
-0.16,0.02,0.97,0.01,0.05,0.04,249
-0.16,0.02,0.97,-0.02,0.02,0.03,249
-0.16,0.02,0.97,-0.04,-0.05,0.03,249
-0.16,0.02,0.97,-0.03,-0.02,0.05,249
-0.16,0.02,0.97,-0.05,0.01,0.04,249
-0.16,0.02,0.97,-0.04,-0.01,-0.01,249
-0.16,0.02,0.97,-0.04,-0.02,-0.03,249
-0.15,0.02,0.97,-0.05,-0.04,-0.03,249
-0.16,0.02,0.97,-0.01,-0.05,-0.02,249
-0.16,0.02,0.97,0.01,-0.03,0.01,249
-0.16,0.02,0.97,0.02,0.02,0.02,249
-0.15,0.02,0.97,0.03,0.02,0.01,249
-0.15,0.02,0.97,0.04,0.01,0.00,249
-0.16,0.02,0.97,0.06,0.01,-0.02,250
-0.16,0.02,0.97,0.03,-0.01,-0.05,249
-0.16,0.02,0.97,-0.01,0.01,-0.01,249
-0.16,0.02,0.97,-0.01,0.02,0.02,249
-0.16,0.02,0.97,0.04,0.02,0.01,249
-0.16,0.02,0.97,0.06,0.01,0.01,249
-0.16,0.02,0.97,-0.01,-0.02,0.00,249
-0.16,0.02,0.97,-0.06,0.00,0.01,249
-0.16,0.02,0.97,-0.05,-0.01,-0.02,249
-0.16,0.02,0.97,-0.04,-0.01,-0.00,249
-0.16,0.02,0.97,0.02,-0.01,0.03,249
-0.16,0.02,0.97,0.04,-0.03,0.04,249
-0.16,0.02,0.97,0.02,-0.04,0.02,249
-0.16,0.02,0.97,-0.03,-0.01,0.01,249
-0.16,0.02,0.97,-0.04,0.01,0.03,249
-0.16,0.02,0.97,0.00,-0.00,0.04,249
-0.16,0.02,0.97,-0.01,0.00,0.03,249
-0.16,0.02,0.97,-0.01,-0.02,0.02,249
-0.16,0.02,0.97,0.00,-0.04,0.02,249
-0.15,0.02,0.97,-0.04,0.02,0.01,249
-0.15,0.02,0.97,-0.01,0.03,-0.01,249
-0.15,0.02,0.97,0.02,-0.01,-0.03,249
-0.15,0.02,0.97,-0.04,0.02,0.04,249
-0.15,0.02,0.97,-0.01,0.03,0.05,249
-0.16,0.02,0.97,0.04,0.02,-0.02,249
-0.16,0.02,0.97,0.02,-0.03,-0.01,249
-0.16,0.02,0.97,-0.01,-0.05,0.01,249
-0.16,0.02,0.97,0.01,-0.06,0.01,249
-0.16,0.02,0.97,0.03,-0.05,0.04,249
-0.15,0.02,0.97,-0.02,-0.01,0.03,249
-0.15,0.02,0.97,-0.04,0.00,0.00,249
-0.16,0.02,0.97,-0.00,-0.03,0.01,249
-0.16,0.02,0.97,0.03,-0.03,0.04,249
-0.16,0.02,0.97,0.01,0.02,0.01,249
-0.16,0.02,0.97,-0.01,0.02,-0.01,249
-0.16,0.02,0.97,0.00,0.01,0.03,249
-0.16,0.02,0.97,0.02,-0.02,0.04,249
-0.16,0.02,0.97,0.04,-0.05,0.03,249
-0.16,0.02,0.97,0.04,-0.03,-0.02,249
-0.16,0.02,0.97,0.01,0.01,-0.04,249
-0.15,0.02,0.97,-0.01,0.02,-0.00,250
-0.16,0.02,0.97,0.00,0.01,0.03,249
-0.16,0.02,0.97,0.03,-0.03,0.03,249
-0.16,0.02,0.97,0.03,-0.01,0.01,249
-0.16,0.02,0.97,-0.02,-0.00,0.02,249
-0.16,0.02,0.97,-0.06,0.01,0.04,249
-0.16,0.02,0.97,0.01,0.02,-0.01,249
-0.16,0.02,0.97,0.07,-0.01,-0.02,249
-0.16,0.02,0.97,0.03,-0.02,-0.03,249
-0.16,0.02,0.97,-0.00,-0.02,-0.05,249
-0.16,0.02,0.97,0.01,0.03,-0.01,249
-0.16,0.02,0.97,0.05,0.04,0.01,249
-0.16,0.02,0.97,0.04,0.01,0.01,249
-0.15,0.02,0.97,0.03,-0.03,-0.01,249
-0.16,0.02,0.97,0.02,-0.01,-0.05,249
-0.16,0.02,0.97,-0.01,0.01,-0.04,249
-0.15,0.02,0.97,-0.02,0.01,0.04,249
-0.15,0.02,0.97,0.01,0.00,0.05,249
-0.16,0.02,0.97,0.02,-0.04,0.03,249
-0.16,0.02,0.97,-0.01,-0.04,0.01,249
-0.16,0.02,0.97,-0.03,-0.01,0.01,249
-0.16,0.02,0.97,-0.04,0.04,0.03,249
-0.16,0.02,0.97,-0.01,0.03,0.03,249
-0.16,0.02,0.97,0.02,-0.01,0.04,249
-0.16,0.02,0.97,0.04,0.01,0.01,249
-0.16,0.02,0.97,0.02,0.01,-0.02,249
-0.16,0.02,0.97,-0.01,0.00,-0.02,249
-0.16,0.02,0.97,-0.01,-0.00,-0.02,249
-0.15,0.02,0.97,0.01,-0.02,-0.07,249
-0.15,0.02,0.97,0.02,-0.03,-0.07,249
-0.16,0.02,0.97,0.00,-0.00,-0.02,249
-0.16,0.02,0.97,-0.04,0.03,-0.01,249
-0.15,0.02,0.97,-0.03,0.04,0.00,249
-0.15,0.02,0.97,0.02,0.04,0.02,249
-0.16,0.02,0.97,-0.00,0.03,0.03,249
-0.16,0.02,0.97,-0.02,0.00,0.06,249
-0.15,0.02,0.97,-0.02,-0.05,0.06,249
-0.15,0.02,0.97,-0.01,-0.05,0.00,249
-0.16,0.02,0.97,0.00,-0.04,0.02,249
-0.16,0.02,0.97,0.02,-0.05,0.02,249
-0.16,0.02,0.97,0.01,-0.05,-0.04,249
-0.15,0.02,0.97,-0.06,-0.01,-0.01,249
-0.16,0.02,0.97,-0.07,0.02,0.01,249
-0.16,0.02,0.97,-0.02,0.00,-0.02,249
-0.16,0.02,0.97,-0.02,-0.00,-0.02,249
-0.16,0.02,0.97,-0.01,-0.05,0.02,249
-0.16,0.02,0.97,0.02,-0.04,0.06,249
-0.16,0.02,0.97,0.01,0.00,0.04,249
-0.16,0.02,0.97,0.02,-0.00,0.01,249
-0.15,0.02,0.97,0.04,-0.00,-0.01,249
-0.15,0.02,0.97,0.01,-0.02,-0.03,249
-0.16,0.02,0.97,-0.02,0.00,-0.04,249
-0.16,0.02,0.97,-0.01,0.07,-0.04,249
-0.16,0.02,0.97,0.04,0.03,0.01,249
-0.16,0.02,0.97,0.05,-0.02,0.01,249
-0.15,0.02,0.97,-0.02,0.02,-0.02,249
-0.16,0.02,0.97,-0.09,0.07,-0.02,249
-0.16,0.02,0.97,-0.06,0.08,-0.01,249
-0.16,0.02,0.97,-0.02,0.01,0.03,249
-0.16,0.02,0.97,0.01,-0.05,0.02,249
-0.16,0.02,0.97,0.04,-0.01,0.00,249
-0.16,0.02,0.97,-0.02,0.05,-0.04,249
-0.16,0.02,0.97,-0.07,0.05,-0.03,249
-0.16,0.02,0.97,-0.02,0.01,-0.02,249
-0.15,0.02,0.97,0.06,-0.05,-0.04,249
-0.15,0.02,0.97,0.07,-0.07,0.03,249
-0.16,0.02,0.97,0.04,-0.04,0.04,249
-0.16,0.02,0.97,-0.00,0.01,0.02,249
-0.15,0.02,0.97,-0.01,0.04,0.06,249
-0.16,0.02,0.97,0.02,0.03,0.03,249
-0.16,0.02,0.97,0.03,0.02,0.03,249
-0.16,0.02,0.97,0.02,-0.01,0.03,249
-0.16,0.02,0.97,-0.04,-0.02,-0.01,249
-0.16,0.02,0.97,-0.04,0.01,-0.02,249
-0.16,0.02,0.97,0.01,-0.00,-0.02,249
-0.16,0.02,0.97,0.02,0.01,-0.03,249
-0.16,0.02,0.97,0.01,0.03,-0.01,249
-0.16,0.02,0.97,0.00,0.01,0.00,249
-0.16,0.02,0.97,-0.02,0.02,-0.01,249
-0.15,0.02,0.97,-0.06,0.02,-0.03,249
-0.16,0.02,0.97,-0.04,-0.01,-0.07,249
-0.15,0.02,0.97,0.01,-0.04,-0.02,249
-0.16,0.02,0.97,-0.03,-0.01,0.03,249
-0.16,0.02,0.97,-0.03,0.01,-0.01,249
-0.16,0.02,0.97,-0.02,0.00,-0.01,249
-0.16,0.02,0.97,-0.01,0.00,-0.00,249
-0.16,0.02,0.97,-0.00,-0.01,0.01,249
-0.15,0.02,0.97,0.00,-0.03,0.00,249
-0.15,0.02,0.97,0.02,0.01,-0.01,249
-0.15,0.02,0.97,-0.03,0.04,0.02,250
-0.15,0.02,0.97,-0.01,0.00,-0.01,249
-0.16,0.02,0.97,0.02,-0.03,-0.02,249
-0.16,0.02,0.97,-0.03,-0.01,0.02,249
-0.16,0.02,0.97,-0.03,-0.00,0.02,249
-0.16,0.02,0.97,0.02,0.01,0.01,249
-0.16,0.02,0.97,0.06,0.02,0.03,249
-0.16,0.02,0.97,0.01,0.00,0.02,249
-0.16,0.02,0.97,-0.06,-0.01,-0.00,249
-0.16,0.02,0.97,-0.06,-0.01,-0.03,249
-0.16,0.02,0.97,-0.05,-0.01,-0.04,249
-0.16,0.02,0.97,0.01,-0.01,-0.04,249
-0.16,0.02,0.97,0.07,0.00,-0.03,249
-0.15,0.02,0.97,0.06,-0.00,-0.01,249
-0.16,0.02,0.97,-0.00,0.01,-0.00,249
-0.16,0.02,0.97,-0.04,0.02,0.01,249
-0.16,0.02,0.97,-0.02,0.03,-0.01,249
-0.16,0.02,0.97,-0.01,-0.01,0.01,249
-0.16,0.02,0.97,-0.02,-0.03,0.01,249
-0.16,0.02,0.97,0.01,-0.01,-0.03,249
-0.16,0.02,0.97,0.04,-0.01,-0.03,249
-0.16,0.02,0.97,-0.01,-0.02,-0.00,249
-0.16,0.02,0.97,-0.03,-0.01,0.01,249
-0.16,0.02,0.97,0.01,0.00,0.01,249
-0.16,0.02,0.97,-0.02,0.04,-0.01,249
-0.16,0.02,0.97,-0.07,0.07,0.02,249
-0.16,0.02,0.97,-0.02,0.06,0.01,249
-0.16,0.02,0.97,0.02,-0.01,-0.05,249
-0.16,0.02,0.97,-0.02,-0.02,-0.07,249
-0.15,0.02,0.97,-0.03,0.01,-0.01,249
-0.15,0.02,0.97,-0.01,0.01,-0.00,249
-0.15,0.02,0.97,-0.01,0.04,-0.03,249
-0.16,0.02,0.97,-0.02,0.01,-0.00,249
-0.16,0.02,0.97,-0.01,0.01,-0.05,249
-0.16,0.02,0.97,-0.02,0.03,-0.01,249
-0.16,0.02,0.97,-0.01,0.00,0.04,249
-0.16,0.02,0.97,0.00,-0.00,0.01,249
-0.15,0.02,0.97,-0.01,0.04,0.01,249
-0.16,0.02,0.97,0.03,0.04,-0.01,249
-0.16,0.02,0.97,0.02,0.01,-0.04,249
-0.15,0.02,0.97,-0.05,-0.03,-0.02,249
-0.15,0.02,0.97,-0.04,0.00,-0.02,249
-0.15,0.02,0.97,-0.01,0.05,-0.01,249
-0.15,0.02,0.97,0.02,-0.01,0.00,249
-0.15,0.02,0.97,0.04,-0.01,-0.01,249
-0.16,0.02,0.97,0.03,-0.01,-0.02,249
-0.16,0.02,0.97,0.04,-0.03,-0.00,249
-0.16,0.02,0.97,-0.00,-0.00,0.03,249
-0.16,0.02,0.97,-0.01,-0.02,0.02,249
-0.16,0.02,0.97,0.06,-0.03,-0.03,249
-0.15,0.02,0.97,0.07,-0.02,-0.04,249
-0.16,0.02,0.97,-0.01,0.00,-0.02,249
-0.16,0.02,0.97,-0.06,0.04,-0.01,249
-0.15,0.02,0.97,-0.04,0.04,0.01,249
-0.15,0.02,0.97,0.01,0.01,0.01,249
-0.16,0.02,0.97,0.00,-0.01,-0.00,249
-0.16,0.02,0.97,0.00,-0.01,-0.02,249
-0.16,0.02,0.97,0.01,0.00,-0.00,249
-0.15,0.02,0.97,-0.04,-0.01,0.03,249
-0.16,0.02,0.97,-0.01,0.02,0.02,249
-0.16,0.02,0.97,0.00,0.03,0.01,249
-0.16,0.02,0.97,-0.04,0.01,-0.01,249
-0.16,0.02,0.97,-0.01,0.01,0.02,249
-0.16,0.02,0.97,0.01,0.01,0.01,249
-0.16,0.02,0.97,0.02,0.01,-0.05,249
-0.16,0.02,0.97,0.02,0.00,0.00,249
-0.16,0.02,0.97,-0.01,-0.03,0.07,249
-0.16,0.02,0.97,-0.03,-0.03,0.04,249
-0.16,0.02,0.97,-0.03,0.04,-0.01,249
-0.16,0.02,0.97,-0.01,0.04,0.02,249
-0.16,0.02,0.97,-0.01,-0.02,0.03,249
-0.16,0.02,0.97,-0.02,-0.00,-0.02,249
-0.16,0.02,0.97,-0.03,0.00,-0.01,249
-0.16,0.02,0.97,0.02,0.01,-0.01,249
-0.15,0.02,0.97,0.05,0.01,0.01,249
-0.15,0.02,0.97,0.02,-0.01,0.04,249
-0.15,0.02,0.97,-0.02,-0.04,0.03,249
-0.15,0.02,0.97,-0.05,-0.05,-0.01,249
-0.15,0.02,0.97,-0.07,-0.04,-0.03,249
-0.16,0.02,0.97,-0.02,0.01,0.02,249
-0.16,0.02,0.97,0.06,0.03,0.02,249
-0.16,0.02,0.97,0.03,-0.00,0.00,249
-0.16,0.02,0.97,-0.02,-0.03,0.02,249
-0.15,0.02,0.97,-0.01,-0.02,0.02,249
-0.16,0.02,0.97,0.01,0.01,-0.01,249
-0.16,0.02,0.97,0.00,0.01,-0.04,249
-0.16,0.02,0.97,-0.01,-0.02,-0.00,249
-0.16,0.02,0.97,-0.01,-0.04,0.04,249
-0.15,0.02,0.97,-0.04,0.01,-0.01,249
-0.15,0.02,0.97,-0.07,0.04,-0.05,249
-0.16,0.02,0.97,-0.02,0.04,-0.03,249
-0.15,0.02,0.97,0.04,-0.01,0.01,249
-0.15,0.02,0.97,0.04,-0.04,-0.02,249
-0.15,0.02,0.97,0.01,-0.03,-0.04,249
-0.15,0.02,0.97,-0.02,0.01,-0.01,250
-0.15,0.02,0.97,0.01,0.03,-0.03,249
-0.16,0.02,0.97,-0.02,0.02,-0.01,249
-0.16,0.02,0.97,-0.06,0.04,0.04,249
-0.16,0.02,0.97,-0.01,0.01,0.00,249
-0.16,0.02,0.97,-0.01,-0.01,-0.03,249
-0.16,0.02,0.97,-0.01,-0.02,-0.01,249
-0.16,0.02,0.97,0.03,-0.05,0.01,249
-0.16,0.02,0.97,0.05,-0.05,-0.01,249
-0.16,0.02,0.97,0.03,-0.03,-0.02,249
-0.16,0.02,0.97,-0.03,0.02,0.00,249
-0.15,0.02,0.97,-0.02,0.04,-0.02,249
-0.15,0.02,0.97,-0.00,0.00,-0.00,249
-0.16,0.02,0.97,0.01,-0.04,0.01,249
-0.15,0.02,0.97,0.03,-0.03,0.01,249
-0.15,0.02,0.97,0.01,0.01,0.04,249
-0.15,0.02,0.97,-0.06,0.02,0.02,249
-0.15,0.02,0.97,-0.07,0.02,-0.01,249
-0.15,0.02,0.97,0.01,0.03,-0.03,249
-0.16,0.02,0.97,0.03,0.02,-0.03,249
-0.16,0.02,0.97,0.01,-0.01,0.01,249
-0.16,0.02,0.97,0.04,0.00,0.05,249
-0.15,0.02,0.97,0.03,0.01,0.04,249
-0.16,0.02,0.97,-0.01,-0.04,0.03,249
-0.16,0.02,0.97,0.03,-0.00,0.01,249
-0.16,0.02,0.97,0.03,0.04,0.00,249
-0.16,0.02,0.97,-0.01,0.02,-0.01,249
-0.16,0.02,0.97,0.02,-0.04,-0.00,249
-0.16,0.02,0.97,0.01,-0.06,0.00,249
-0.16,0.02,0.97,0.01,-0.01,0.00,249
-0.16,0.02,0.97,-0.00,0.02,0.03,249
-0.16,0.02,0.97,-0.02,0.04,0.02,249
-0.16,0.02,0.97,0.02,0.04,0.00,249
-0.16,0.02,0.97,0.04,0.01,0.05,249
-0.16,0.02,0.97,0.01,-0.03,0.06,249
-0.16,0.02,0.97,-0.04,-0.01,-0.01,249
-0.16,0.02,0.97,-0.04,-0.01,-0.02,249
-0.16,0.02,0.97,0.02,0.01,-0.01,249
-0.16,0.02,0.97,0.04,0.04,0.01,249
-0.16,0.02,0.97,0.01,0.02,-0.01,249
-0.16,0.02,0.97,0.00,-0.01,-0.02,249
-0.16,0.02,0.97,-0.01,0.02,0.01,249
-0.15,0.02,0.97,-0.04,0.05,0.04,249
-0.15,0.02,0.97,0.00,0.02,0.07,249
-0.15,0.02,0.97,0.02,0.01,0.03,249
-0.15,0.02,0.97,0.04,-0.01,0.01,249
-0.15,0.02,0.97,0.02,-0.04,0.01,249
-0.15,0.02,0.97,-0.04,-0.03,0.02,249
-0.15,0.02,0.97,-0.02,-0.02,0.01,249
-0.16,0.02,0.97,0.02,-0.05,-0.05,249
-0.16,0.02,0.97,0.04,-0.02,-0.04,249
-0.16,0.02,0.97,0.01,-0.01,0.02,249
-0.16,0.02,0.97,-0.04,-0.02,0.00,249
-0.16,0.02,0.97,-0.03,-0.01,-0.02,249
-0.16,0.02,0.97,0.01,-0.04,0.02,249
-0.15,0.02,0.97,0.02,-0.01,0.04,249
-0.15,0.02,0.97,-0.02,-0.00,0.01,249
-0.16,0.02,0.97,-0.01,-0.00,-0.01,249
-0.16,0.02,0.97,-0.01,0.01,-0.03,249
-0.16,0.02,0.97,0.01,-0.01,-0.04,249
-0.16,0.02,0.97,0.03,-0.02,-0.02,249
-0.16,0.02,0.97,0.02,-0.01,-0.00,249
-0.16,0.02,0.97,0.01,0.02,-0.01,249
-0.16,0.02,0.97,-0.01,0.03,0.01,249
-0.16,0.02,0.97,-0.01,-0.00,0.01,249
-0.16,0.02,0.97,0.04,-0.02,-0.03,249
-0.16,0.02,0.97,0.05,-0.04,-0.04,249
-0.16,0.02,0.97,0.01,-0.06,0.01,249
-0.16,0.02,0.97,0.01,-0.04,0.02,249
-0.15,0.02,0.97,-0.06,-0.01,-0.01,249
-0.16,0.02,0.97,-0.06,0.02,-0.01,249
-0.16,0.02,0.97,0.01,0.04,-0.00,249
-0.16,0.02,0.97,0.01,0.01,-0.03,249
-0.15,0.02,0.97,-0.04,0.02,-0.01,249
-0.16,0.02,0.97,-0.07,0.09,0.01,249
-0.16,0.02,0.97,-0.02,0.08,-0.02,249
-0.16,0.02,0.97,0.02,0.02,0.02,249
-0.15,0.02,0.97,0.03,0.01,0.02,249
-0.15,0.02,0.97,0.01,-0.01,0.01,249
-0.15,0.02,0.97,-0.02,-0.03,0.05,249
-0.16,0.02,0.97,-0.01,-0.01,0.02,249
-0.16,0.02,0.97,0.02,0.02,-0.02,250
-0.16,0.02,0.97,0.02,0.04,-0.01,249
-0.15,0.02,0.97,-0.04,0.04,-0.02,249
-0.16,0.02,0.97,-0.01,0.03,-0.03,249
-0.16,0.02,0.97,0.07,0.01,0.01,249
-0.16,0.02,0.97,0.06,-0.03,-0.01,249
-0.16,0.02,0.97,0.02,-0.05,-0.00,249
-0.16,0.02,0.97,-0.03,-0.04,0.05,250
-0.15,0.02,0.97,-0.03,-0.02,0.01,249
-0.15,0.02,0.97,0.00,0.03,-0.02,249
-0.15,0.02,0.97,0.01,0.02,0.01,249
-0.16,0.02,0.97,0.02,-0.03,-0.02,249
-0.16,0.02,0.97,-0.01,0.03,-0.02,249
-0.16,0.02,0.97,-0.04,0.06,0.02,249
-0.15,0.02,0.97,-0.00,0.01,0.03,250
-0.16,0.02,0.97,0.04,0.04,-0.01,249
-0.16,0.02,0.97,0.02,0.05,-0.03,249
-0.16,0.02,0.97,0.01,-0.01,-0.04,249
-0.16,0.02,0.97,-0.00,0.01,-0.04,249
-0.16,0.02,0.97,-0.04,0.03,0.01,249
-0.16,0.02,0.97,-0.01,0.03,0.04,249
-0.16,0.02,0.97,0.04,0.02,0.01,249
-0.16,0.02,0.97,0.03,0.02,-0.01,249
-0.15,0.02,0.97,0.01,-0.01,-0.01,249
-0.16,0.02,0.97,-0.02,-0.06,0.02,249
-0.16,0.02,0.97,-0.00,-0.03,-0.00,249
-0.15,0.02,0.97,0.02,-0.02,-0.00,249
-0.16,0.02,0.97,-0.03,-0.03,0.01,249
-0.16,0.02,0.97,-0.04,0.01,0.02,249
-0.15,0.02,0.97,-0.02,0.02,0.01,249
-0.16,0.02,0.97,-0.00,0.01,-0.02,249
-0.16,0.02,0.97,0.01,0.01,0.03,250
-0.16,0.02,0.97,0.03,-0.04,-0.00,249
-0.16,0.02,0.97,0.01,-0.04,-0.05,249
-0.16,0.02,0.97,-0.02,-0.01,-0.02,249
-0.16,0.02,0.97,0.00,-0.03,0.05,249
-0.16,0.02,0.97,0.01,0.00,0.05,249
-0.16,0.02,0.97,-0.00,0.00,-0.01,249
-0.16,0.02,0.97,-0.01,-0.01,-0.03,249
-0.15,0.02,0.97,-0.04,0.00,-0.01,249
-0.15,0.02,0.97,-0.02,0.01,0.02,249
-0.16,0.02,0.97,0.01,0.03,0.01,249
-0.16,0.02,0.97,0.03,0.02,-0.04,249
-0.16,0.02,0.97,-0.02,-0.00,-0.04,249
-0.16,0.02,0.97,-0.03,0.04,0.01,249
-0.16,0.02,0.97,-0.02,0.06,0.03,249
-0.15,0.02,0.97,-0.01,0.02,0.02,249
-0.16,0.02,0.97,-0.01,0.03,0.02,249
-0.16,0.02,0.97,-0.04,0.01,0.00,249
-0.16,0.02,0.97,-0.04,-0.00,-0.02,249
-0.16,0.02,0.97,-0.06,-0.01,-0.03,249
-0.16,0.02,0.97,-0.04,-0.03,-0.02,249
-0.16,0.02,0.97,0.02,-0.03,-0.03,249
-0.15,0.02,0.97,0.01,-0.03,-0.05,249
-0.15,0.02,0.97,-0.00,-0.02,-0.04,249
-0.16,0.02,0.97,-0.01,0.01,-0.03,249
-0.16,0.02,0.97,0.01,0.02,0.02,249
-0.16,0.02,0.97,0.04,0.02,0.05,249
-0.16,0.02,0.97,0.02,0.02,0.01,249
-0.16,0.02,0.97,-0.01,-0.01,-0.00,249
-0.16,0.02,0.97,-0.01,0.01,0.00,249
-0.16,0.02,0.97,-0.01,-0.02,0.01,249
-0.16,0.02,0.97,0.03,-0.05,0.03,249
-0.15,0.02,0.97,0.06,-0.01,-0.01,249
-0.16,0.02,0.97,-0.03,-0.01,0.01,249
-0.16,0.02,0.97,-0.05,0.01,0.01,249
-0.15,0.02,0.97,-0.00,0.01,0.00,249
-0.15,0.02,0.97,0.00,0.04,-0.01,249
-0.16,0.02,0.97,-0.00,0.02,-0.04,249
-0.16,0.02,0.97,0.01,-0.04,0.00,249
-0.16,0.02,0.97,0.02,-0.01,0.00,249
-0.16,0.02,0.97,-0.01,0.03,0.00,249
-0.16,0.02,0.97,-0.03,0.04,0.01,249
-0.15,0.02,0.97,0.00,0.01,-0.02,249
-0.16,0.02,0.97,0.04,-0.01,-0.06,249
-0.16,0.02,0.97,0.01,-0.03,-0.04,249
-0.16,0.02,0.97,-0.01,0.00,-0.01,249
-0.16,0.02,0.97,-0.02,0.04,0.02,249
-0.16,0.02,0.97,-0.04,0.02,0.01,249
-0.16,0.02,0.97,-0.00,-0.01,-0.03,249
-0.16,0.02,0.97,0.01,0.00,-0.02,249
-0.15,0.02,0.97,-0.02,0.02,-0.04,249
-0.15,0.02,0.97,-0.03,-0.00,-0.04,249
-0.15,0.02,0.97,0.03,-0.03,-0.02,249
-0.15,0.02,0.97,0.08,-0.05,0.02,249
-0.16,0.02,0.97,0.04,-0.01,0.01,249
-0.16,0.02,0.97,-0.01,0.03,-0.05,249
-0.16,0.02,0.97,0.02,0.01,-0.03,249
-0.15,0.02,0.97,0.01,0.02,0.01,249
-0.16,0.02,0.97,-0.02,0.02,-0.05,249
-0.15,0.02,0.97,-0.00,0.03,-0.08,249
-0.15,0.02,0.97,-0.02,0.02,0.02,249
-0.16,0.02,0.97,-0.01,-0.02,0.05,249
-0.16,0.02,0.97,0.04,-0.02,0.01,249
-0.16,0.02,0.97,0.03,-0.04,0.01,249
-0.16,0.02,0.97,0.03,-0.08,-0.00,249
-0.15,0.02,0.97,0.00,-0.03,-0.04,249
-0.15,0.02,0.97,-0.03,0.01,-0.01,249
-0.15,0.02,0.97,-0.01,0.02,0.02,249
-0.15,0.02,0.97,-0.00,0.04,0.02,249
-0.16,0.02,0.97,-0.01,0.01,0.03,249
-0.16,0.02,0.97,0.00,0.01,0.00,249
-0.16,0.02,0.97,0.01,0.04,-0.02,249
-0.16,0.02,0.97,-0.01,0.05,0.00,249
-0.16,0.02,0.97,0.00,0.01,-0.00,249
-0.16,0.02,0.97,0.04,-0.02,0.01,249
-0.15,0.02,0.97,0.03,0.00,0.02,249
-0.15,0.02,0.97,-0.00,-0.02,-0.04,249
-0.16,0.02,0.97,0.00,0.00,-0.04,249
-0.16,0.02,0.97,0.02,0.02,0.00,249
-0.16,0.02,0.97,0.02,-0.02,0.01,249
-0.16,0.02,0.97,0.02,-0.01,-0.00,249
-0.15,0.02,0.97,0.02,0.02,-0.01,249
-0.16,0.02,0.97,0.02,-0.03,0.01,249
-0.16,0.02,0.97,0.02,-0.02,0.04,249
-0.16,0.02,0.97,0.03,0.00,0.02,249
-0.15,0.02,0.97,0.02,0.02,0.00,249
-0.15,0.02,0.97,-0.03,0.04,0.01,249
-0.16,0.02,0.97,-0.06,0.03,0.01,249
-0.16,0.02,0.97,-0.02,0.01,-0.01,249
-0.16,0.02,0.97,0.02,-0.04,-0.05,249
-0.16,0.02,0.97,0.01,-0.04,-0.04,249
-0.16,0.02,0.97,-0.01,-0.01,-0.01,249
-0.16,0.02,0.97,-0.02,-0.03,-0.04,249
-0.16,0.02,0.97,-0.04,-0.03,-0.03,249
-0.16,0.02,0.97,-0.01,0.00,0.01,249
-0.16,0.02,0.97,0.01,0.01,0.03,249
-0.16,0.02,0.97,-0.01,0.01,0.03,249
-0.16,0.02,0.97,-0.02,-0.01,0.01,249
-0.16,0.02,0.97,-0.01,-0.01,0.01,249
-0.16,0.02,0.97,0.01,-0.00,0.02,249
-0.16,0.02,0.97,0.00,0.00,0.01,249
-0.16,0.02,0.97,-0.01,-0.01,-0.02,249
-0.16,0.02,0.97,-0.02,0.01,-0.00,249
-0.16,0.02,0.97,-0.04,0.02,0.04,249
-0.16,0.02,0.97,-0.01,-0.01,0.03,249
-0.16,0.02,0.97,-0.04,-0.06,0.01,249
-0.15,0.02,0.97,-0.05,-0.05,-0.02,249
-0.15,0.02,0.97,-0.04,-0.03,0.03,249
-0.15,0.02,0.97,-0.01,-0.04,0.06,249
-0.16,0.02,0.97,0.01,-0.01,0.04,249
-0.16,0.02,0.97,0.03,-0.03,0.01,249
-0.16,0.02,0.97,0.07,-0.06,-0.01,249
-0.16,0.02,0.97,0.04,-0.02,0.01,249
-0.16,0.02,0.97,-0.02,0.00,0.06,249
-0.16,0.02,0.97,0.00,0.03,0.06,249
-0.16,0.02,0.97,0.02,0.02,0.02,249
-0.16,0.02,0.97,0.02,-0.02,-0.01,249
-0.16,0.02,0.97,0.01,-0.03,-0.02,249
-0.16,0.02,0.97,-0.01,-0.01,-0.02,249
-0.16,0.02,0.97,-0.02,0.02,0.01,249
-0.16,0.02,0.97,-0.02,0.03,0.01,249
-0.16,0.02,0.97,0.01,-0.03,-0.03,249
-0.16,0.02,0.97,0.01,-0.04,-0.01,249
-0.16,0.02,0.97,0.00,-0.01,0.04,249
-0.15,0.02,0.97,-0.04,-0.02,0.05,249
-0.15,0.02,0.97,-0.01,0.01,0.03,249
-0.16,0.02,0.97,0.04,0.04,0.04,249
-0.16,0.02,0.97,0.05,0.04,-0.00,249
-0.16,0.02,0.97,0.04,-0.02,-0.05,249
-0.16,0.02,0.97,-0.01,-0.06,0.01,249
-0.15,0.02,0.97,-0.04,-0.03,0.03,249
-0.15,0.02,0.97,-0.03,0.00,0.03,249
-0.15,0.02,0.97,0.01,0.03,0.02,249
-0.15,0.02,0.97,0.02,0.02,0.01,249
-0.16,0.02,0.97,-0.01,0.02,-0.00,249
-0.16,0.02,0.97,-0.04,0.01,-0.00,249
-0.15,0.02,0.97,-0.06,0.02,0.01,249
-0.15,0.02,0.97,-0.04,0.07,0.01,249
-0.15,0.02,0.97,0.01,0.02,-0.00,249
-0.15,0.02,0.97,0.01,-0.02,-0.03,249
-0.16,0.02,0.97,0.01,-0.01,-0.01,249
-0.16,0.02,0.97,0.03,-0.00,-0.01,249
-0.15,0.02,0.97,0.01,0.01,-0.01,249
-0.16,0.02,0.97,-0.01,0.01,-0.01,250
-0.16,0.02,0.97,-0.01,0.01,-0.04,249
-0.16,0.02,0.97,-0.03,-0.01,-0.03,249
-0.15,0.02,0.97,-0.01,-0.05,0.02,249
-0.15,0.02,0.97,-0.01,-0.06,0.04,249
-0.15,0.02,0.97,-0.01,-0.03,-0.01,249
-0.16,0.02,0.97,0.00,0.01,-0.04,249
-0.16,0.02,0.97,-0.01,0.02,-0.02,249
