Accel_X(g),Accel_Y(g),Accel_Z(g),Gyro_X(dps),Gyro_Y(dps),Gyro_Z(dps),Temperature
0.96,0.01,0.03,-0.01,-0.01,-0.04,249
0.96,0.01,0.03,0.02,0.01,-0.04,249
0.96,0.01,0.03,0.02,0.02,-0.01,249
0.96,0.01,0.03,0.04,0.05,0.02,249
0.96,0.01,0.03,0.03,0.05,-0.01,250
0.96,0.01,0.03,-0.04,0.02,-0.07,249
0.96,0.01,0.03,-0.03,0.00,-0.05,249
0.96,0.01,0.03,0.00,-0.04,0.00,249
0.96,0.01,0.03,0.00,-0.01,0.04,249
0.96,0.01,0.03,-0.04,0.00,0.01,249
0.96,0.01,0.03,-0.04,-0.04,-0.02,249
0.96,0.01,0.03,-0.01,-0.04,0.00,249
0.96,0.01,0.03,0.01,0.01,0.01,249
0.96,0.01,0.03,0.03,0.06,0.02,249
0.96,0.01,0.03,0.00,0.04,0.00,249
0.96,0.01,0.03,-0.04,-0.03,-0.02,249
0.96,0.01,0.03,-0.00,-0.04,0.02,250
0.96,0.01,0.03,0.04,0.05,0.03,249
0.96,0.01,0.03,0.03,0.06,-0.06,249
0.96,0.01,0.03,0.02,0.00,0.02,249
0.96,0.01,0.03,0.01,-0.06,0.08,249
0.96,0.01,0.03,-0.01,0.07,0.05,249
0.96,0.01,0.03,0.00,0.04,-0.08,249
0.97,0.02,0.03,0.02,-0.14,0.14,249
0.97,0.01,0.03,-0.01,-0.06,0.20,249
0.96,0.01,0.03,-0.01,0.10,-0.37,249
0.96,0.02,0.03,0.00,0.06,0.12,249
0.96,0.01,0.03,0.03,-0.30,0.33,249
0.96,0.01,0.03,-0.06,0.14,-0.24,249
0.96,0.01,0.03,-0.06,0.37,-0.10,249
0.96,0.01,0.03,0.07,-0.25,0.13,249
0.96,0.01,0.03,0.04,-0.12,0.14,249
0.96,0.01,0.03,-0.03,0.10,-0.21,249
0.96,0.01,0.03,0.00,0.14,-0.09,249
0.96,0.01,0.03,0.07,-0.03,0.28,249
0.96,0.01,0.03,0.05,-0.21,0.05,249
0.97,0.02,0.03,-0.01,0.10,-0.02,249
0.97,0.01,0.04,0.03,0.11,0.08,249
0.96,0.01,0.03,0.01,-0.16,-0.09,249
0.96,0.01,0.03,-0.06,0.00,-0.10,249
0.96,0.01,0.03,0.01,0.15,-0.12,249
0.96,0.01,0.03,0.05,0.15,-0.05,249
0.96,0.01,0.03,0.02,-0.06,0.03,249
0.96,0.01,0.03,-0.01,-0.02,-0.08,249
0.96,0.01,0.03,0.01,0.21,-0.02,250
0.96,0.01,0.03,0.07,-0.06,-0.01,249
0.96,0.01,0.03,0.03,-0.17,0.09,249
0.96,0.01,0.03,-0.00,-0.09,0.05,249
0.96,0.01,0.03,0.02,0.08,-0.02,249
0.96,0.01,0.03,0.01,0.02,0.13,249
0.96,0.01,0.03,0.01,-0.15,0.02,249
0.96,0.01,0.03,0.00,0.06,-0.03,249
0.96,0.01,0.03,-0.00,0.04,0.09,249
0.96,0.01,0.03,-0.01,-0.03,0.05,249
0.96,0.01,0.03,-0.04,0.12,-0.10,249
0.96,0.01,0.03,0.01,0.08,-0.04,249
0.96,0.01,0.03,0.04,0.01,0.08,249
0.96,0.01,0.03,-0.02,0.01,-0.04,249
0.96,0.01,0.03,-0.05,0.06,-0.08,249
0.96,0.01,0.03,0.00,0.04,0.01,249
0.96,0.01,0.03,0.01,-0.03,0.03,249
0.96,0.01,0.03,-0.02,0.01,-0.01,249
0.96,0.01,0.03,0.01,0.03,-0.04,249
0.96,0.01,0.03,0.01,0.02,-0.02,249
0.96,0.01,0.03,0.00,-0.02,0.01,249
0.96,0.01,0.03,0.04,-0.06,0.04,249
0.96,0.01,0.03,0.02,-0.01,-0.03,249
0.96,0.01,0.03,-0.02,0.03,-0.08,249
0.96,0.01,0.03,-0.02,-0.01,-0.01,250
0.96,0.01,0.03,-0.01,-0.04,0.06,249
0.96,0.01,0.03,0.02,0.02,-0.02,249
0.96,0.01,0.03,0.02,0.08,-0.12,249
0.96,0.01,0.03,0.02,0.03,-0.04,249
0.96,0.01,0.03,-0.01,-0.01,0.02,249
0.96,0.01,0.03,-0.04,0.01,0.01,249
0.96,0.01,0.03,0.01,0.00,-0.01,249
0.96,0.01,0.03,0.03,0.01,0.03,249
0.96,0.01,0.03,0.01,-0.01,0.08,249
0.96,0.01,0.03,-0.02,-0.03,0.02,249
0.96,0.01,0.03,-0.03,0.02,-0.03,249
0.96,0.01,0.03,-0.03,0.06,-0.01,249
0.96,0.01,0.03,-0.01,0.02,0.01,249
0.96,0.01,0.03,-0.03,0.02,0.01,249
0.96,0.01,0.03,-0.03,0.02,-0.03,249
0.96,0.01,0.03,0.04,0.03,-0.03,249
0.96,0.01,0.03,0.03,0.03,-0.03,249
0.96,0.01,0.03,0.02,0.01,-0.06,250
0.96,0.01,0.03,0.04,-0.03,-0.02,249
0.96,0.01,0.03,0.00,-0.04,0.03,249
0.96,0.01,0.03,-0.01,-0.04,0.03,249
0.96,0.01,0.03,-0.02,-0.03,0.03,249
0.96,0.01,0.03,0.00,-0.01,0.00,249
0.96,0.01,0.03,0.00,-0.03,0.00,249
0.96,0.01,0.03,-0.00,0.00,-0.01,249
0.96,0.01,0.03,0.00,0.04,-0.02,249
0.96,0.01,0.03,-0.02,0.00,-0.03,249
0.96,0.01,0.03,0.02,-0.01,-0.02,249
0.96,0.01,0.03,0.04,-0.02,0.02,249
0.96,0.01,0.03,0.04,-0.01,0.00,249
0.96,0.01,0.03,0.05,0.04,0.00,249
0.96,0.01,0.03,0.00,0.02,0.04,249
0.96,0.01,0.03,0.00,-0.03,0.02,249
0.96,0.01,0.03,0.05,-0.03,0.01,249
0.96,0.01,0.03,0.05,0.00,0.03,249
0.96,0.01,0.03,0.02,-0.04,0.00,249
0.96,0.01,0.03,0.00,-0.06,0.01,249
0.96,0.01,0.03,-0.02,-0.06,0.02,250
0.96,0.01,0.03,-0.01,-0.05,-0.01,249
0.96,0.01,0.03,0.02,-0.00,-0.04,249
0.96,0.01,0.03,0.03,0.04,0.00,249
0.96,0.01,0.03,0.03,0.03,0.05,249
0.96,0.01,0.03,0.03,0.06,0.02,249
0.96,0.01,0.03,-0.01,0.05,-0.01,249
0.96,0.01,0.03,-0.00,0.02,-0.00,249
0.96,0.01,0.03,-0.03,0.07,0.02,249
0.96,0.01,0.03,-0.02,0.05,-0.00,249
0.96,0.01,0.03,0.03,0.02,-0.01,249
0.96,0.01,0.03,0.02,0.02,0.01,249
0.96,0.01,0.03,0.02,0.01,0.04,249
0.96,0.01,0.03,0.02,0.01,0.04,249
0.96,0.01,0.03,-0.01,-0.02,0.03,249
0.96,0.01,0.03,0.00,-0.03,0.02,249
0.96,0.01,0.03,-0.01,0.01,0.03,249
0.96,0.01,0.03,0.00,0.00,0.02,249
0.96,0.01,0.03,0.04,-0.03,-0.02,249
0.96,0.01,0.03,0.02,-0.03,-0.04,249
0.96,0.01,0.03,0.02,0.02,-0.01,249
0.96,0.01,0.03,0.01,0.05,0.02,249
0.96,0.01,0.03,0.01,0.03,0.02,249
0.96,0.01,0.03,0.02,0.02,0.00,249
0.96,0.01,0.03,0.01,0.00,-0.03,249
0.96,0.01,0.03,0.01,0.00,-0.03,249
0.96,0.01,0.03,0.03,-0.01,0.00,249
0.96,0.01,0.03,0.07,-0.03,0.03,249
0.96,0.01,0.03,0.05,-0.01,0.01,249
0.96,0.01,0.03,0.02,-0.00,0.02,249
0.96,0.01,0.03,0.02,-0.01,0.04,249
0.96,0.01,0.03,0.00,-0.01,0.01,249
0.96,0.01,0.03,-0.02,0.00,-0.04,249
0.96,0.01,0.03,-0.02,0.03,-0.02,249
0.96,0.01,0.03,-0.02,0.02,0.00,249
0.96,0.01,0.03,-0.03,0.02,-0.02,249
0.96,0.01,0.03,-0.03,0.02,0.01,249
0.96,0.01,0.03,-0.02,-0.00,0.02,249
0.96,0.01,0.03,0.03,-0.03,0.00,249
0.96,0.01,0.03,0.00,-0.03,0.02,249
0.96,0.01,0.03,-0.02,-0.01,-0.03,249
0.96,0.01,0.03,0.01,-0.00,-0.01,249
0.96,0.01,0.03,0.01,-0.00,0.05,249
0.96,0.01,0.03,0.00,0.00,0.06,249
0.96,0.01,0.03,0.01,0.03,0.05,250
0.96,0.01,0.03,0.00,0.00,0.03,249
0.96,0.01,0.03,0.03,-0.01,0.03,249
0.96,0.01,0.03,0.05,-0.01,0.02,249
0.96,0.01,0.03,-0.01,-0.03,-0.00,249
0.96,0.01,0.03,-0.05,-0.03,-0.01,249
0.96,0.01,0.03,-0.04,-0.01,0.02,249
0.96,0.01,0.03,-0.02,0.00,0.06,249
0.96,0.01,0.03,0.02,-0.02,0.03,249
0.96,0.01,0.03,0.05,0.00,-0.02,249
0.96,0.01,0.03,0.05,0.00,-0.03,249
0.96,0.01,0.03,0.00,-0.00,-0.02,249
0.96,0.01,0.03,-0.01,-0.00,-0.03,249
0.96,0.01,0.03,-0.02,-0.02,-0.03,249
0.96,0.01,0.03,-0.02,-0.03,-0.00,249
0.96,0.01,0.03,0.01,-0.01,-0.04,249
0.96,0.01,0.03,0.02,0.00,-0.01,249
0.96,0.01,0.03,0.00,-0.01,0.02,249
0.96,0.01,0.03,0.01,0.02,0.01,249
0.96,0.01,0.03,-0.00,0.06,-0.01,249
0.96,0.01,0.03,-0.01,-0.00,-0.05,249
0.96,0.01,0.03,-0.02,-0.04,-0.07,249
0.96,0.01,0.03,-0.06,0.00,-0.07,249
0.96,0.01,0.03,-0.06,-0.01,-0.05,249
0.96,0.01,0.03,-0.03,-0.04,-0.03,249
0.96,0.01,0.03,-0.00,-0.00,-0.03,249
0.96,0.01,0.03,0.03,-0.01,0.00,249
0.96,0.01,0.03,-0.01,-0.05,0.01,249
0.96,0.01,0.03,-0.03,-0.02,-0.00,249
0.96,0.01,0.03,0.03,0.01,-0.01,249
0.96,0.01,0.03,-0.02,-0.01,-0.03,249
0.96,0.01,0.03,-0.05,-0.03,-0.01,249
0.96,0.01,0.03,-0.02,-0.00,0.05,249
0.96,0.01,0.03,-0.02,0.00,0.03,249
0.96,0.01,0.03,-0.01,0.00,0.02,249
0.96,0.01,0.03,0.03,0.02,0.04,249
0.96,0.01,0.03,0.02,0.02,0.03,249
0.96,0.01,0.03,-0.05,-0.01,0.03,249
0.96,0.01,0.03,-0.04,-0.04,0.03,249
0.96,0.01,0.03,-0.05,-0.03,0.06,249
0.96,0.01,0.03,-0.05,-0.02,0.03,249
0.96,0.01,0.03,-0.02,-0.01,-0.01,250
0.96,0.01,0.03,-0.05,0.05,-0.03,249
0.96,0.01,0.03,-0.04,0.07,-0.02,249
0.96,0.01,0.03,-0.01,0.03,-0.00,249
0.96,0.01,0.03,0.00,0.01,-0.02,249
0.96,0.01,0.03,-0.00,0.02,-0.04,249
0.96,0.01,0.03,-0.01,0.01,0.01,249
0.96,0.01,0.03,-0.01,0.01,0.07,249
0.96,0.01,0.03,-0.02,0.02,0.07,249
0.96,0.01,0.03,-0.01,-0.03,0.02,250
0.96,0.01,0.03,0.00,-0.05,-0.02,249
0.96,0.01,0.03,-0.00,-0.01,-0.04,249
0.96,0.01,0.03,-0.01,-0.04,0.00,249
0.96,0.01,0.03,-0.01,-0.05,0.04,249
0.96,0.01,0.03,-0.01,-0.05,0.00,249
0.96,0.01,0.03,0.03,-0.01,-0.02,249
0.96,0.01,0.03,0.02,0.03,0.03,249
0.96,0.01,0.03,-0.03,0.02,0.05,249
0.96,0.01,0.03,-0.01,-0.01,0.05,249
0.96,0.01,0.03,0.00,-0.03,-0.02,249
0.96,0.01,0.03,0.02,-0.01,-0.06,249
0.96,0.01,0.03,0.02,-0.02,0.00,249
0.96,0.01,0.03,-0.02,-0.04,0.00,249
0.96,0.01,0.03,-0.05,0.00,-0.03,249
0.96,0.01,0.03,-0.05,0.00,0.00,249
0.96,0.01,0.03,-0.04,-0.02,0.02,249
0.96,0.01,0.03,-0.05,-0.01,0.00,250
0.96,0.01,0.03,-0.05,0.00,-0.00,249
0.96,0.01,0.03,-0.01,-0.02,0.05,249
0.96,0.01,0.03,0.02,-0.05,0.07,249
0.96,0.01,0.03,0.02,-0.04,0.03,249
0.96,0.01,0.03,-0.01,-0.01,0.01,250
0.96,0.01,0.03,-0.04,-0.02,0.04,249
0.96,0.01,0.03,-0.00,-0.04,0.09,249
0.96,0.01,0.03,0.02,0.02,0.03,249
0.96,0.01,0.03,0.01,0.02,-0.02,249
0.96,0.01,0.03,0.04,-0.04,-0.03,249
0.96,0.01,0.03,0.00,-0.02,-0.02,249
0.96,0.01,0.03,0.01,-0.01,0.00,249
0.96,0.01,0.03,0.04,-0.03,-0.01,249
0.96,0.01,0.03,0.03,0.01,-0.00,249
0.96,0.01,0.03,-0.01,-0.02,-0.02,249
0.96,0.01,0.03,0.00,-0.05,-0.04,249
0.96,0.01,0.03,0.01,-0.04,-0.05,249
0.96,0.01,0.03,-0.03,-0.03,-0.03,249
0.96,0.01,0.03,-0.03,0.00,-0.02,249
0.96,0.01,0.03,0.01,-0.02,-0.07,249
0.96,0.01,0.03,0.01,-0.05,-0.03,250
0.96,0.01,0.03,-0.01,-0.02,0.01,249
0.96,0.01,0.03,0.00,0.01,-0.04,249
0.96,0.01,0.03,-0.01,0.00,-0.05,249
0.96,0.01,0.03,-0.01,0.02,-0.03,249
0.96,0.01,0.03,0.01,-0.00,-0.03,249
0.96,0.01,0.03,0.01,-0.01,-0.03,250
0.96,0.01,0.03,0.01,-0.01,0.04,249
0.96,0.01,0.03,0.02,-0.06,0.07,249
0.96,0.01,0.03,0.01,-0.04,-0.04,250
0.96,0.01,0.03,0.04,-0.03,-0.07,249
0.96,0.01,0.03,0.04,-0.02,-0.02,249
0.96,0.01,0.03,-0.02,-0.01,0.03,249
0.96,0.01,0.03,-0.03,-0.01,0.03,249
0.96,0.01,0.03,-0.01,-0.03,-0.05,249
0.96,0.01,0.03,0.04,-0.04,-0.04,249
0.96,0.01,0.03,0.04,-0.01,-0.01,249
0.96,0.01,0.03,0.04,0.02,0.02,249
0.96,0.01,0.03,0.02,0.03,0.06,249
0.96,0.01,0.03,0.00,-0.01,0.02,249
0.96,0.01,0.03,-0.01,-0.01,-0.02,249
0.96,0.01,0.03,-0.03,0.02,0.00,249
0.96,0.01,0.03,-0.01,0.00,-0.02,249
0.96,0.01,0.03,-0.02,-0.01,-0.01,249
0.96,0.01,0.03,-0.03,-0.03,0.04,249
0.96,0.01,0.03,0.00,-0.02,0.02,249
0.96,0.01,0.03,0.04,-0.00,-0.02,250
0.96,0.01,0.03,0.01,-0.02,-0.02,249
0.96,0.01,0.03,-0.01,-0.00,-0.04,249
0.96,0.01,0.03,0.03,0.05,0.00,249
0.96,0.01,0.03,0.02,-0.00,-0.05,249
0.96,0.01,0.03,-0.03,-0.01,-0.05,249
0.96,0.01,0.03,-0.03,0.02,0.01,249
0.96,0.01,0.03,0.02,0.01,0.01,249
0.96,0.01,0.03,0.03,-0.01,0.03,249
0.96,0.01,0.03,0.03,-0.01,0.03,249
0.96,0.01,0.03,0.01,0.02,-0.01,249
0.96,0.01,0.03,-0.02,0.01,-0.03,249
0.96,0.01,0.03,0.04,-0.01,-0.04,249
0.96,0.01,0.03,0.05,-0.01,-0.03,249
0.96,0.01,0.03,-0.01,-0.03,0.01,250
0.96,0.01,0.03,-0.05,-0.06,0.02,249
0.96,0.01,0.03,-0.05,-0.04,0.01,249
0.96,0.01,0.03,-0.00,0.01,0.05,249
0.96,0.01,0.03,0.01,0.02,0.02,249
0.96,0.01,0.03,-0.02,-0.03,-0.02,249
0.96,0.01,0.03,0.01,-0.03,0.03,249
0.96,0.01,0.03,-0.04,0.03,0.05,249
0.96,0.01,0.03,-0.06,0.03,0.04,249
0.96,0.01,0.03,0.02,-0.03,-0.02,249
0.96,0.01,0.03,0.02,-0.03,-0.04,249
0.96,0.01,0.03,0.01,-0.03,-0.01,249
0.96,0.01,0.03,0.03,-0.03,-0.02,249
0.96,0.01,0.03,0.01,0.01,-0.03,249
0.96,0.01,0.03,0.00,0.02,-0.04,249
0.96,0.01,0.03,-0.03,0.01,0.00,249
0.96,0.01,0.03,-0.02,-0.03,0.00,249
0.96,0.01,0.03,-0.01,-0.03,-0.04,249
0.96,0.01,0.03,-0.03,0.02,-0.02,249
0.96,0.01,0.03,-0.01,0.05,-0.00,249
0.96,0.01,0.03,-0.03,0.04,-0.02,249
0.96,0.01,0.03,-0.06,0.03,-0.03,249
0.96,0.01,0.03,-0.02,0.01,-0.03,249
0.96,0.01,0.03,0.00,0.02,-0.03,249
0.96,0.01,0.03,-0.00,-0.00,-0.02,249
0.96,0.01,0.03,-0.01,-0.02,-0.00,249
0.96,0.01,0.03,0.01,0.01,0.02,249
0.96,0.01,0.03,-0.00,0.04,0.03,249
0.96,0.01,0.03,-0.00,0.03,0.02,249
0.96,0.01,0.03,0.03,0.01,0.03,249
0.96,0.01,0.03,0.00,0.00,0.02,249
0.96,0.01,0.03,-0.01,0.01,0.03,250
0.96,0.01,0.03,-0.05,0.01,0.03,249
0.96,0.01,0.03,-0.01,0.01,-0.03,249
0.96,0.01,0.03,0.02,-0.03,-0.04,249
0.96,0.01,0.03,-0.01,-0.03,-0.00,249
0.96,0.01,0.03,-0.00,0.01,0.00,249
0.96,0.01,0.03,0.02,-0.05,0.01,249
0.96,0.01,0.03,0.04,-0.01,0.07,249
0.96,0.01,0.03,0.04,0.07,0.08,249
0.96,0.01,0.03,0.03,0.00,0.02,249
0.96,0.01,0.03,0.00,-0.04,-0.04,249
0.96,0.01,0.03,0.04,0.02,-0.06,249
0.96,0.01,0.03,0.04,0.02,-0.04,249
0.96,0.01,0.03,0.03,-0.01,-0.02,249
0.96,0.01,0.03,0.04,0.00,-0.00,249
0.96,0.01,0.03,0.01,-0.03,0.03,249
0.96,0.01,0.03,0.01,-0.04,-0.02,249
0.96,0.01,0.03,0.02,-0.01,-0.06,249
0.96,0.01,0.03,0.02,0.01,-0.04,249
0.96,0.01,0.03,0.00,-0.00,-0.02,249
0.96,0.01,0.03,0.00,-0.03,0.01,249
0.96,0.01,0.03,-0.00,-0.04,0.01,249
0.96,0.01,0.03,-0.01,-0.00,-0.05,249
0.96,0.01,0.03,0.00,0.01,-0.06,249
0.96,0.01,0.03,0.03,-0.01,-0.04,249
0.96,0.01,0.03,0.02,-0.03,-0.05,249
0.96,0.01,0.03,0.00,-0.00,-0.02,249
0.96,0.01,0.03,0.01,-0.00,-0.01,249
0.96,0.01,0.03,-0.01,0.03,-0.04,249
0.96,0.01,0.03,-0.00,0.04,-0.03,249
0.96,0.01,0.03,0.03,-0.01,-0.02,249
0.96,0.01,0.03,0.02,-0.00,-0.01,249
0.96,0.01,0.03,-0.02,-0.01,0.03,249
0.96,0.01,0.03,-0.01,0.01,0.03,249
0.96,0.01,0.03,0.01,-0.01,0.02,249
0.96,0.01,0.03,0.02,-0.02,0.01,249
0.96,0.01,0.03,0.04,0.01,0.02,249
0.96,0.01,0.03,0.03,0.01,0.05,249
0.96,0.01,0.03,0.00,0.01,0.00,249
0.96,0.01,0.03,-0.01,0.01,0.00,249
0.96,0.01,0.03,-0.01,0.01,0.02,249
0.96,0.01,0.03,-0.01,0.03,-0.00,249
0.96,0.01,0.03,-0.05,-0.01,0.03,250
0.96,0.01,0.03,-0.04,-0.03,0.02,249
0.96,0.01,0.03,0.00,-0.00,0.00,249
0.96,0.01,0.03,0.01,-0.01,-0.01,250
0.96,0.01,0.03,-0.01,-0.03,-0.05,249
0.96,0.01,0.03,-0.02,-0.05,-0.01,249
0.96,0.01,0.03,-0.01,0.00,0.06,249
0.96,0.01,0.03,-0.04,0.02,0.05,249
0.96,0.01,0.03,-0.02,-0.00,-0.01,249
0.96,0.01,0.03,-0.04,-0.03,-0.03,249
0.96,0.01,0.03,-0.07,0.00,-0.03,249
0.96,0.01,0.03,-0.03,0.02,0.00,249
0.96,0.01,0.03,0.02,0.04,-0.02,249
0.96,0.01,0.03,0.03,0.03,-0.05,249
0.96,0.01,0.03,-0.01,-0.00,-0.03,249
0.96,0.01,0.03,-0.00,-0.02,-0.00,249
0.96,0.01,0.03,-0.01,-0.03,0.01,249
0.96,0.01,0.03,-0.03,0.00,0.02,249
0.96,0.01,0.03,0.02,-0.02,0.02,249
0.96,0.01,0.03,0.01,-0.05,-0.03,249
0.96,0.01,0.03,-0.02,-0.00,-0.05,249
0.96,0.01,0.03,-0.05,0.01,-0.01,249
0.96,0.01,0.03,-0.01,-0.03,0.05,249
0.96,0.01,0.03,0.02,-0.01,0.06,249
0.96,0.01,0.03,-0.01,0.01,0.01,249
0.96,0.01,0.03,-0.04,-0.02,-0.02,249
0.96,0.01,0.03,-0.03,-0.05,0.03,249
0.96,0.01,0.03,0.02,-0.01,0.04,250
0.96,0.01,0.03,0.02,0.03,0.06,249
0.96,0.01,0.03,0.01,0.03,0.05,249
0.96,0.01,0.03,-0.01,0.02,0.03,249
0.96,0.01,0.03,-0.05,-0.01,0.04,250
0.96,0.01,0.03,-0.03,-0.01,0.02,249
0.96,0.01,0.03,-0.02,-0.04,0.00,249
0.96,0.01,0.03,-0.03,-0.01,0.03,249
0.96,0.01,0.03,-0.00,0.00,0.02,249
0.96,0.01,0.03,0.02,-0.03,0.05,249
0.96,0.01,0.03,0.01,-0.04,0.07,249
0.96,0.01,0.03,-0.01,-0.01,0.02,249
0.96,0.01,0.03,0.00,0.04,-0.00,249
0.96,0.01,0.03,-0.01,0.04,0.00,249
0.96,0.01,0.03,-0.03,0.02,0.01,249
0.96,0.01,0.03,-0.01,-0.02,-0.00,249
0.96,0.01,0.03,0.00,-0.03,-0.02,249
0.96,0.01,0.03,0.03,0.01,-0.01,249
0.96,0.01,0.03,0.05,0.01,0.02,249
0.96,0.01,0.03,0.01,-0.01,-0.00,249
0.96,0.01,0.03,0.01,0.01,-0.05,249
0.96,0.01,0.03,-0.00,0.03,-0.01,249
0.96,0.01,0.03,-0.03,0.01,0.00,249
0.96,0.01,0.03,-0.05,-0.01,-0.03,249
0.96,0.01,0.03,-0.05,-0.01,-0.01,249
0.96,0.01,0.03,-0.01,-0.03,-0.00,249
0.96,0.01,0.03,0.01,-0.01,0.00,249
0.96,0.01,0.03,0.01,-0.01,0.00,249
0.96,0.01,0.03,0.01,-0.03,0.03,249
0.96,0.01,0.03,-0.00,0.03,0.04,249
0.96,0.01,0.03,-0.01,0.06,-0.01,249
0.96,0.01,0.03,0.00,0.04,-0.00,250
0.96,0.01,0.03,-0.02,0.01,0.03,249
0.96,0.01,0.03,-0.03,-0.01,0.03,249
0.96,0.01,0.03,0.01,0.02,0.02,249
0.96,0.01,0.03,-0.01,0.01,-0.01,249
0.96,0.01,0.03,0.00,-0.01,-0.00,249
0.96,0.01,0.03,0.04,0.02,0.03,249
0.96,0.01,0.03,0.00,0.02,0.03,250
0.96,0.01,0.03,-0.01,-0.02,0.01,249
0.96,0.01,0.03,0.02,-0.04,0.00,249
0.96,0.01,0.03,0.03,0.01,-0.02,249
0.96,0.01,0.03,0.00,0.04,-0.01,249
0.96,0.01,0.03,-0.02,0.00,0.01,249
0.96,0.01,0.03,-0.00,0.01,-0.01,249
0.96,0.01,0.03,0.04,0.02,0.00,249
0.96,0.01,0.03,0.02,0.01,0.03,249
0.96,0.01,0.03,0.01,-0.01,-0.00,249
0.96,0.01,0.03,0.02,-0.01,-0.06,249
0.96,0.01,0.03,0.01,0.04,-0.04,249
0.96,0.01,0.03,0.01,0.05,-0.02,249
0.96,0.01,0.03,0.02,0.01,-0.03,249
0.96,0.01,0.03,0.01,-0.00,-0.02,249
0.96,0.01,0.03,-0.01,0.02,-0.01,249
0.96,0.01,0.03,0.01,0.02,0.02,249
0.96,0.01,0.03,0.00,0.00,0.03,249
0.96,0.01,0.03,0.00,0.01,0.00,249
0.96,0.01,0.03,0.02,0.01,0.02,249
0.96,0.01,0.03,0.00,0.02,0.01,250
0.96,0.01,0.03,0.01,0.03,0.00,249
0.96,0.01,0.03,0.02,0.00,0.04,249
0.96,0.01,0.03,-0.01,-0.05,0.00,249
0.96,0.01,0.03,-0.01,-0.01,-0.03,249
0.96,0.01,0.03,0.02,0.03,0.02,249
0.96,0.01,0.03,0.02,0.01,0.07,250
0.96,0.01,0.03,0.02,-0.01,0.09,250
0.96,0.01,0.03,0.01,-0.01,0.05,249
0.96,0.01,0.03,0.01,-0.01,0.00,249
0.96,0.01,0.03,-0.01,0.00,-0.02,249
0.96,0.01,0.03,0.00,0.01,0.00,249
0.96,0.01,0.03,0.02,0.01,0.05,249
0.96,0.01,0.03,-0.02,-0.00,0.02,249
0.96,0.01,0.03,-0.05,-0.02,0.01,249
0.96,0.01,0.03,-0.01,-0.00,0.01,249
0.96,0.01,0.03,0.03,0.01,-0.02,249
0.96,0.01,0.03,-0.01,0.01,0.01,249
0.96,0.01,0.03,-0.05,0.02,-0.01,249
0.96,0.01,0.03,0.00,0.01,-0.03,249
0.96,0.01,0.03,0.01,0.00,-0.01,249
0.96,0.01,0.03,-0.03,0.01,-0.03,249
0.96,0.01,0.03,-0.01,0.02,-0.02,249
0.96,0.01,0.03,-0.01,0.06,-0.00,249
0.96,0.01,0.03,0.02,0.02,-0.06,249
0.96,0.01,0.03,0.01,-0.01,-0.07,250
0.96,0.01,0.03,0.00,0.01,-0.02,249
0.96,0.01,0.03,0.01,0.01,-0.02,249
0.96,0.01,0.03,-0.00,0.03,-0.00,249
0.96,0.01,0.03,0.01,0.02,0.01,249
0.96,0.01,0.03,0.04,0.01,-0.01,249
0.96,0.01,0.03,0.03,0.02,-0.02,249
0.96,0.01,0.03,-0.01,0.04,-0.03,249
0.96,0.01,0.03,0.01,0.00,0.00,249
0.96,0.01,0.03,-0.02,-0.01,0.03,249
0.96,0.01,0.03,-0.05,-0.01,-0.03,249
0.96,0.01,0.03,-0.00,-0.01,-0.03,249
0.96,0.01,0.03,0.03,0.02,0.00,249
0.96,0.01,0.03,-0.00,0.02,0.02,249
0.96,0.01,0.03,-0.01,0.00,0.02,249
0.96,0.01,0.03,-0.01,0.02,-0.03,249
0.96,0.01,0.03,0.00,0.03,-0.05,249
0.96,0.01,0.03,0.02,-0.00,-0.01,249
0.96,0.01,0.03,0.01,0.00,0.04,249
0.96,0.01,0.03,0.02,0.01,0.03,249
0.96,0.01,0.03,0.02,0.02,0.02,249
0.96,0.01,0.03,0.00,0.03,0.03,249
0.96,0.01,0.03,-0.01,0.03,0.03,249
0.96,0.01,0.03,0.01,0.01,0.03,249
0.96,0.01,0.03,0.01,0.01,0.03,249
0.96,0.01,0.03,0.00,-0.00,0.03,249
0.96,0.01,0.03,-0.00,-0.03,0.02,249
0.96,0.01,0.03,-0.01,-0.04,0.02,249
0.96,0.01,0.03,0.01,-0.03,0.02,249
0.96,0.01,0.03,0.02,-0.01,0.00,249
0.96,0.01,0.03,-0.01,-0.05,-0.03,249
0.96,0.01,0.03,-0.02,-0.08,-0.01,249
0.96,0.01,0.03,0.01,-0.01,-0.00,249
0.96,0.01,0.03,0.01,0.04,-0.00,249
0.96,0.01,0.03,-0.00,0.01,-0.01,249
0.96,0.01,0.03,-0.01,0.00,-0.04,249
0.96,0.01,0.03,0.00,-0.01,0.02,249
0.96,0.01,0.03,0.00,-0.04,0.02,249
0.96,0.01,0.03,0.01,-0.01,-0.01,249
0.96,0.01,0.03,0.02,0.02,0.02,249
0.96,0.01,0.03,0.02,0.00,0.02,250
0.96,0.01,0.03,0.01,-0.03,0.02,249
0.96,0.01,0.03,0.00,-0.02,0.04,249
0.96,0.01,0.03,0.00,0.01,0.05,249
0.96,0.01,0.03,0.02,-0.00,0.04,249
0.96,0.01,0.03,0.01,-0.01,-0.02,249
0.96,0.01,0.03,-0.01,-0.00,-0.01,249
0.96,0.01,0.03,0.00,0.00,0.02,249
0.96,0.01,0.03,0.00,-0.01,-0.01,249
0.96,0.01,0.03,0.01,-0.02,0.04,249
0.96,0.01,0.03,0.00,-0.03,0.08,249
0.96,0.01,0.03,-0.01,-0.04,0.00,249
0.96,0.01,0.03,0.02,-0.03,-0.00,249
0.96,0.01,0.03,0.01,-0.01,0.03,249
0.96,0.01,0.03,-0.00,-0.04,-0.02,249
0.96,0.01,0.03,0.00,-0.04,-0.03,249
0.96,0.01,0.03,0.02,-0.01,-0.01,249
0.96,0.01,0.03,-0.03,-0.01,-0.02,249
0.96,0.01,0.03,-0.04,-0.01,-0.00,249
0.96,0.01,0.03,0.02,-0.04,-0.03,249
0.96,0.01,0.03,0.02,-0.05,-0.05,249
0.96,0.01,0.03,-0.01,-0.01,0.01,249
0.96,0.01,0.03,-0.02,-0.01,0.01,249
0.96,0.01,0.03,-0.03,0.01,-0.03,249
0.96,0.01,0.03,-0.04,0.04,-0.02,249
0.96,0.01,0.03,-0.05,0.05,-0.01,249
0.96,0.01,0.03,-0.03,0.02,-0.03,249
0.96,0.01,0.03,0.00,-0.01,-0.03,249
0.96,0.01,0.03,-0.02,-0.01,-0.03,249
0.96,0.01,0.03,-0.05,-0.04,-0.02,249
0.96,0.01,0.03,-0.05,-0.05,0.02,249
0.96,0.01,0.03,-0.03,-0.01,0.01,249
0.96,0.01,0.03,-0.03,0.01,-0.03,249
0.96,0.01,0.03,-0.03,0.01,-0.02,249
0.96,0.01,0.03,0.01,-0.01,0.01,249
0.96,0.01,0.03,0.01,-0.01,0.02,249
0.96,0.01,0.03,0.04,0.02,0.02,249
0.96,0.01,0.03,0.06,0.03,0.03,249
0.96,0.01,0.03,-0.01,0.00,0.03,249
0.96,0.01,0.03,-0.01,-0.01,0.02,249
0.96,0.01,0.03,-0.02,-0.01,0.00,249
0.96,0.01,0.03,-0.04,-0.03,0.03,249
0.96,0.01,0.03,0.02,-0.04,0.03,249
0.96,0.01,0.03,0.03,-0.02,0.00,249
0.96,0.01,0.03,-0.00,-0.01,-0.01,249
0.96,0.01,0.03,-0.01,-0.03,0.03,249
0.96,0.01,0.03,-0.03,-0.00,0.00,249
0.96,0.01,0.03,-0.03,0.02,-0.05,249
0.96,0.01,0.03,-0.05,0.02,-0.05,249
0.96,0.01,0.03,0.00,0.02,-0.05,249
0.96,0.01,0.03,0.04,-0.02,-0.03,249
0.96,0.01,0.03,-0.03,-0.01,-0.02,249
0.96,0.01,0.03,-0.02,-0.01,-0.02,249
0.96,0.01,0.03,0.00,-0.02,-0.02,249
0.96,0.01,0.03,0.03,0.01,0.00,249
0.96,0.01,0.03,0.02,0.02,0.02,249
0.96,0.01,0.03,0.00,0.01,0.05,249
0.96,0.01,0.03,0.03,-0.00,0.02,249
0.96,0.01,0.03,0.02,0.00,-0.03,249
0.96,0.01,0.03,-0.01,0.02,-0.05,250
0.96,0.01,0.03,-0.02,0.02,0.02,249
0.96,0.01,0.03,-0.01,0.01,0.04,249
0.96,0.01,0.03,-0.02,0.03,-0.00,249
0.96,0.01,0.03,-0.05,0.02,0.00,249
0.96,0.01,0.03,-0.01,0.00,0.05,249
0.96,0.01,0.03,0.04,0.02,0.05,249
0.96,0.01,0.03,-0.03,0.02,-0.01,249
0.96,0.01,0.03,-0.03,0.02,-0.03,249
0.96,0.01,0.03,0.03,0.01,-0.01,249
0.96,0.01,0.03,-0.04,0.01,0.00,249
0.96,0.01,0.03,-0.05,0.01,0.03,249
0.96,0.01,0.03,0.00,-0.01,0.05,249
0.96,0.01,0.03,-0.02,-0.02,0.05,249
0.96,0.01,0.03,-0.01,-0.03,0.04,249
0.96,0.01,0.03,-0.00,-0.02,0.03,249
0.96,0.01,0.03,-0.01,0.01,0.05,249
0.96,0.01,0.03,0.00,0.02,0.05,249
0.96,0.01,0.03,-0.02,0.02,0.02,249
0.96,0.01,0.03,0.01,0.01,-0.02,249
0.96,0.01,0.03,0.02,0.02,-0.03,249
0.96,0.01,0.03,-0.00,0.01,-0.02,249
0.96,0.01,0.03,0.00,-0.03,0.01,249
0.96,0.01,0.03,0.01,0.01,-0.01,249
0.96,0.01,0.03,0.00,-0.00,-0.01,249
0.96,0.01,0.03,0.00,-0.03,-0.01,249
0.96,0.01,0.03,0.04,-0.03,0.02,250
0.96,0.01,0.03,0.03,-0.01,0.09,249
0.96,0.01,0.03,0.00,0.01,0.03,249
0.96,0.01,0.03,0.00,-0.03,-0.03,249
0.96,0.01,0.03,-0.02,-0.02,-0.00,249
0.96,0.01,0.03,0.01,0.03,-0.00,249
0.96,0.01,0.03,0.00,0.04,-0.04,249
0.96,0.01,0.03,-0.04,-0.01,-0.02,249
0.96,0.01,0.03,-0.03,-0.01,-0.02,249
0.96,0.01,0.03,0.00,0.04,-0.06,249
0.96,0.01,0.03,-0.01,0.02,-0.02,249
0.96,0.01,0.03,-0.01,-0.01,0.02,249
0.96,0.01,0.03,-0.03,0.02,-0.00,249
0.96,0.01,0.03,-0.04,0.01,0.00,249
0.96,0.01,0.03,-0.01,0.01,0.00,249
0.96,0.01,0.03,-0.01,0.02,0.04,249
0.96,0.01,0.03,-0.00,0.01,0.01,249
0.96,0.01,0.03,0.04,-0.01,-0.04,249
0.96,0.01,0.03,0.02,-0.02,-0.02,249
0.96,0.01,0.03,0.01,0.01,-0.02,249
0.96,0.01,0.03,0.01,0.02,-0.02,249
0.96,0.01,0.03,0.01,0.04,-0.02,249
0.96,0.01,0.03,0.02,0.04,-0.03,249
0.96,0.01,0.03,-0.01,-0.03,-0.00,249
0.96,0.01,0.03,-0.03,-0.06,-0.00,249
0.96,0.01,0.03,0.00,0.01,-0.02,249
0.96,0.01,0.03,0.03,0.04,-0.02,249
0.96,0.01,0.03,0.00,0.00,-0.01,249
0.96,0.01,0.03,-0.03,-0.02,0.03,249
0.96,0.01,0.03,-0.01,-0.01,0.04,249
0.96,0.01,0.03,0.00,0.00,-0.00,249
0.96,0.01,0.03,-0.00,0.02,-0.06,249
0.96,0.01,0.03,0.00,-0.01,-0.02,249
0.96,0.01,0.03,-0.00,0.01,-0.00,249
0.96,0.01,0.03,0.02,0.04,-0.02,249
0.96,0.01,0.03,0.02,-0.00,-0.02,249
0.96,0.01,0.03,0.02,-0.05,-0.06,249
0.96,0.01,0.03,-0.00,-0.05,-0.03,249
0.96,0.01,0.03,-0.00,-0.04,0.01,249
0.96,0.01,0.03,-0.00,-0.05,0.01,249
0.96,0.01,0.03,-0.01,-0.04,0.01,249
0.96,0.01,0.03,-0.03,-0.03,-0.02,249
0.96,0.01,0.03,-0.01,-0.02,-0.05,249
0.96,0.01,0.03,-0.00,0.00,-0.01,249
0.96,0.01,0.03,0.01,-0.01,0.02,249
0.96,0.01,0.03,0.02,-0.01,-0.01,249
0.96,0.01,0.03,0.02,0.02,0.02,249
0.96,0.01,0.03,0.02,0.02,0.02,249
0.96,0.01,0.03,-0.02,0.01,0.00,249
0.96,0.01,0.03,-0.03,-0.01,0.00,249
0.96,0.01,0.03,-0.01,-0.02,0.00,249
0.96,0.01,0.03,0.00,0.02,0.00,249
0.96,0.01,0.03,0.03,0.03,0.00,249
0.96,0.01,0.03,0.01,0.02,-0.02,249
0.96,0.01,0.03,-0.01,-0.02,-0.03,250
0.96,0.01,0.03,0.02,-0.02,0.01,249
0.96,0.01,0.03,0.00,-0.00,-0.02,249
0.96,0.01,0.03,0.03,-0.03,-0.03,249
0.96,0.01,0.03,0.05,-0.04,0.04,249
0.96,0.01,0.03,0.02,-0.04,0.05,249
0.96,0.01,0.03,-0.02,-0.04,0.03,249
0.96,0.01,0.03,-0.02,-0.04,0.00,249
0.96,0.01,0.03,-0.04,0.00,-0.02,249
0.96,0.01,0.03,-0.03,0.02,-0.01,249
0.96,0.01,0.03,0.00,-0.02,0.01,249
0.96,0.01,0.03,-0.01,-0.02,0.02,249
0.96,0.01,0.03,0.00,0.00,0.02,249
0.96,0.01,0.03,0.04,0.02,-0.01,249
0.96,0.01,0.03,0.03,-0.01,-0.02,249
0.96,0.01,0.03,-0.00,0.01,-0.01,249
0.96,0.01,0.03,-0.01,0.04,-0.01,249
0.96,0.01,0.03,-0.01,-0.00,0.00,249
0.96,0.01,0.03,-0.03,0.02,0.01,249
0.96,0.01,0.03,-0.03,0.01,0.01,249
0.96,0.01,0.03,-0.01,0.01,0.01,249
0.96,0.01,0.03,-0.01,0.02,-0.02,249
0.96,0.01,0.03,0.01,-0.01,-0.05,249
0.96,0.01,0.03,0.02,-0.01,-0.03,249
0.96,0.01,0.03,0.04,0.02,-0.02,249
0.96,0.01,0.03,0.05,0.02,-0.00,249
0.96,0.01,0.03,0.03,0.01,0.02,249
0.96,0.01,0.03,0.01,-0.02,-0.01,249
0.96,0.01,0.03,0.01,-0.02,-0.03,249
0.96,0.01,0.03,0.01,0.03,0.02,249
0.96,0.01,0.03,-0.01,0.04,0.02,249
0.96,0.01,0.03,0.01,0.03,-0.04,249
0.96,0.01,0.03,0.03,0.01,-0.04,249
0.96,0.01,0.03,0.02,-0.01,0.01,249
0.96,0.01,0.03,0.02,0.01,0.05,249
0.96,0.01,0.03,0.04,-0.02,0.00,249
0.96,0.01,0.03,0.05,0.01,-0.03,249
0.96,0.01,0.03,0.01,0.02,-0.00,249
0.96,0.01,0.03,-0.01,-0.02,0.01,249
0.96,0.01,0.03,0.00,0.00,0.03,249
0.96,0.01,0.03,-0.02,-0.01,0.00,249
0.96,0.01,0.03,0.00,-0.01,-0.02,249
0.96,0.01,0.03,0.04,0.02,-0.01,249
0.96,0.01,0.03,0.01,0.01,-0.00,249
0.96,0.01,0.03,0.03,-0.01,0.00,249
0.96,0.01,0.03,0.03,-0.00,-0.03,249
0.96,0.01,0.03,0.03,-0.01,-0.01,249
0.96,0.01,0.03,-0.01,0.02,0.05,249
0.96,0.01,0.03,-0.01,0.04,0.04,249
0.96,0.01,0.03,0.00,0.01,0.00,249
0.96,0.01,0.03,0.01,-0.00,-0.02,249
0.96,0.01,0.03,0.02,-0.01,0.01,249
0.96,0.01,0.03,0.01,-0.00,0.00,249
0.96,0.01,0.03,0.01,0.02,-0.03,249
0.96,0.01,0.03,-0.03,-0.01,-0.04,249
0.96,0.01,0.03,-0.04,0.02,-0.05,249
0.96,0.01,0.03,-0.04,0.03,-0.05,249
0.96,0.01,0.03,-0.01,0.01,-0.05,249
0.96,0.01,0.03,0.02,-0.01,-0.07,249
0.96,0.01,0.03,0.03,-0.01,-0.04,250
0.96,0.01,0.03,0.01,0.01,-0.03,249
0.96,0.01,0.03,-0.04,0.01,-0.01,249
0.96,0.01,0.03,-0.03,-0.01,0.02,249
0.96,0.01,0.03,-0.01,0.00,-0.04,249
0.96,0.01,0.03,-0.02,0.03,-0.05,249
0.96,0.01,0.03,-0.00,0.04,0.02,249
0.96,0.01,0.03,0.01,0.02,0.01,249
0.96,0.01,0.03,0.01,0.01,-0.01,249
0.96,0.01,0.03,-0.00,-0.01,-0.02,250
0.96,0.01,0.03,-0.05,-0.04,0.00,249
0.96,0.01,0.03,-0.05,-0.01,0.02,249
0.96,0.01,0.03,-0.01,-0.01,0.02,249
0.96,0.01,0.03,-0.00,-0.03,-0.01,249
0.96,0.01,0.03,-0.01,-0.00,-0.04,249
0.96,0.01,0.03,-0.02,0.01,-0.01,249
0.96,0.01,0.03,-0.02,0.01,0.03,249
0.96,0.01,0.03,0.01,0.04,0.07,249
0.96,0.01,0.03,0.02,0.01,0.04,249
0.96,0.01,0.03,-0.03,-0.01,0.03,249
0.96,0.01,0.03,-0.01,0.01,0.02,249
0.96,0.01,0.03,0.01,0.00,-0.01,249
0.96,0.01,0.03,-0.04,0.02,0.02,249
0.96,0.01,0.03,-0.03,0.02,0.03,249
0.96,0.01,0.03,-0.05,-0.00,0.03,249
0.96,0.01,0.03,-0.05,0.00,0.02,249
0.96,0.01,0.03,-0.02,0.02,-0.03,249
0.96,0.01,0.03,-0.01,0.02,-0.05,249
0.96,0.01,0.03,0.04,0.01,-0.01,249
0.96,0.01,0.03,0.04,-0.01,-0.01,249
0.96,0.01,0.03,0.02,-0.02,-0.06,249
0.96,0.01,0.03,0.02,-0.03,-0.05,249
0.96,0.01,0.03,0.03,-0.01,0.02,249
0.96,0.01,0.03,0.03,-0.03,0.01,249
0.96,0.01,0.03,0.01,0.00,0.00,249
0.96,0.01,0.03,0.02,-0.01,0.03,249
0.96,0.01,0.03,0.02,-0.01,0.03,249
0.96,0.01,0.03,0.00,0.01,0.00,249
0.96,0.01,0.03,-0.01,-0.06,-0.03,249
0.96,0.01,0.03,0.00,-0.03,0.02,249
0.96,0.01,0.03,0.02,-0.01,0.07,250
0.96,0.01,0.03,0.03,-0.06,0.02,249
0.96,0.01,0.03,0.02,-0.04,0.00,249
0.96,0.01,0.03,-0.00,-0.01,-0.02,249
0.96,0.01,0.03,0.04,0.02,-0.05,249
0.96,0.01,0.03,0.04,0.02,-0.02,249
0.96,0.01,0.03,0.03,-0.03,-0.04,249
0.96,0.01,0.03,0.02,-0.03,-0.04,249
0.96,0.01,0.03,0.01,-0.04,0.03,249
0.96,0.01,0.03,0.00,-0.06,0.05,249
0.96,0.01,0.03,0.00,-0.02,0.02,249
0.96,0.01,0.03,-0.01,0.00,0.01,249
0.96,0.01,0.03,-0.03,-0.03,-0.04,249
0.96,0.01,0.03,-0.01,-0.04,-0.05,249
0.96,0.01,0.03,-0.01,-0.02,-0.01,249
0.96,0.01,0.03,-0.02,0.01,0.01,249
0.96,0.01,0.03,-0.03,0.02,0.02,249
0.96,0.01,0.03,-0.04,-0.05,-0.05,249
0.96,0.01,0.03,0.02,-0.09,-0.04,249
0.96,0.01,0.03,0.03,-0.03,0.03,249
0.96,0.01,0.03,0.00,-0.01,0.01,249
0.96,0.01,0.03,0.00,-0.03,-0.02,249
0.96,0.01,0.03,-0.05,-0.05,0.02,249
0.96,0.01,0.03,-0.00,-0.06,0.00,249
0.96,0.01,0.03,0.01,-0.02,0.02,249
0.96,0.01,0.03,-0.01,0.01,0.03,249
0.96,0.01,0.03,0.01,-0.01,-0.05,249
0.96,0.01,0.03,-0.01,-0.05,-0.05,249
0.96,0.01,0.03,0.02,-0.04,0.00,249
0.96,0.01,0.03,0.05,-0.02,0.02,249
0.96,0.01,0.03,0.02,-0.02,0.03,249
0.96,0.01,0.03,0.02,-0.03,0.03,249
0.96,0.01,0.03,0.00,-0.04,-0.01,249
0.96,0.01,0.03,0.01,-0.04,-0.03,249
0.96,0.01,0.03,-0.00,-0.02,-0.01,249
0.96,0.01,0.03,-0.02,-0.02,0.00,249
0.96,0.01,0.03,0.01,-0.02,0.05,249
0.96,0.01,0.03,0.00,0.01,0.02,249
0.96,0.01,0.03,-0.03,0.02,-0.05,249
0.96,0.01,0.03,-0.05,0.02,-0.03,249
0.96,0.01,0.03,-0.03,0.01,-0.01,249
0.96,0.01,0.03,-0.05,-0.02,-0.02,249
0.96,0.01,0.03,-0.07,-0.02,-0.00,249
0.96,0.01,0.03,-0.06,0.01,0.00,249
0.96,0.01,0.03,-0.03,0.00,-0.03,249
0.96,0.01,0.03,0.02,0.01,-0.01,249
0.96,0.01,0.03,0.03,-0.00,-0.01,249
0.96,0.01,0.03,0.04,-0.02,0.00,249
0.96,0.01,0.03,0.03,-0.02,0.02,249
0.96,0.01,0.03,-0.01,-0.01,0.03,249
0.96,0.01,0.03,-0.02,-0.01,0.02,249
0.96,0.01,0.03,-0.01,-0.04,-0.01,249
0.96,0.01,0.03,-0.02,-0.04,0.02,249
0.96,0.01,0.03,0.01,-0.01,0.01,249
0.96,0.01,0.03,0.01,0.00,-0.04,249
0.96,0.01,0.03,-0.02,-0.02,-0.03,249
0.96,0.01,0.03,-0.02,-0.04,0.03,249
0.96,0.01,0.03,-0.00,-0.01,0.04,249
0.96,0.01,0.03,0.03,0.00,0.03,249
0.96,0.01,0.03,0.02,-0.02,0.02,249
0.96,0.01,0.03,0.01,-0.02,0.03,249
0.96,0.01,0.03,0.03,0.01,-0.01,249
0.96,0.01,0.03,-0.01,0.02,-0.01,249
0.96,0.01,0.03,-0.04,0.00,0.04,249
0.96,0.01,0.03,-0.01,-0.00,-0.01,249
0.96,0.01,0.03,-0.03,0.02,-0.03,249
0.96,0.01,0.03,-0.05,0.06,0.02,249
0.96,0.01,0.03,-0.04,0.01,-0.02,249
0.96,0.01,0.03,0.00,-0.02,-0.05,249
0.96,0.01,0.03,0.01,0.00,-0.05,249
0.96,0.01,0.03,0.00,0.01,-0.03,249
0.96,0.01,0.03,0.00,0.04,-0.04,249
0.96,0.01,0.03,-0.01,0.04,-0.05,249
0.96,0.01,0.03,-0.01,0.04,-0.01,249
0.96,0.01,0.03,-0.04,0.04,0.00,249
0.96,0.01,0.03,-0.05,0.05,0.03,249
0.96,0.01,0.03,-0.03,0.04,0.05,249
0.96,0.01,0.03,0.00,0.00,0.02,249
0.96,0.01,0.03,0.00,0.00,-0.03,249
0.96,0.01,0.03,-0.03,-0.02,-0.05,249
0.96,0.01,0.03,-0.02,-0.01,-0.02,249
0.96,0.01,0.03,-0.00,-0.02,-0.00,249
0.96,0.01,0.03,0.01,-0.04,-0.01,249
0.96,0.01,0.03,0.00,-0.02,-0.01,249
0.96,0.01,0.03,0.02,-0.01,-0.01,249
0.96,0.01,0.03,0.05,-0.04,0.00,249
0.96,0.01,0.03,0.04,-0.01,0.02,249
0.96,0.01,0.03,0.02,0.01,0.01,249
0.96,0.01,0.03,-0.01,-0.02,0.02,249
0.96,0.01,0.03,0.00,-0.02,0.04,249
0.96,0.01,0.03,0.02,0.02,0.00,249
0.96,0.01,0.03,0.02,0.04,-0.01,249
0.96,0.01,0.03,0.00,-0.01,-0.02,249
0.96,0.01,0.03,0.03,-0.03,-0.03,249
0.96,0.01,0.03,0.03,0.01,0.03,249
0.96,0.01,0.03,-0.01,0.03,0.02,249
0.96,0.01,0.03,-0.02,0.02,0.01,249
0.96,0.01,0.03,-0.00,-0.02,-0.03,249
0.96,0.01,0.03,0.02,-0.02,-0.02,249
0.96,0.01,0.03,0.02,-0.02,0.02,249
0.96,0.01,0.03,0.02,-0.01,-0.05,249
0.96,0.01,0.03,0.06,0.02,-0.05,249
0.96,0.01,0.03,0.01,0.03,-0.03,249
0.96,0.01,0.03,-0.01,0.02,-0.01,249
0.96,0.01,0.03,0.02,0.01,-0.01,249
0.96,0.01,0.03,-0.00,-0.01,-0.04,249
0.96,0.01,0.03,-0.00,0.01,-0.03,249
0.96,0.01,0.03,-0.04,-0.01,-0.02,249
0.96,0.01,0.03,-0.04,-0.04,-0.05,249
0.96,0.01,0.03,0.00,-0.01,-0.01,249
0.96,0.01,0.03,0.00,-0.02,0.05,249
0.96,0.01,0.03,-0.01,-0.03,0.04,249
0.96,0.01,0.03,0.01,-0.02,-0.00,249
0.96,0.01,0.03,0.03,0.01,0.02,249
0.96,0.01,0.03,0.03,-0.00,0.02,249
0.96,0.01,0.03,0.04,-0.00,-0.02,249
0.96,0.01,0.03,0.01,0.00,0.01,249
0.96,0.01,0.03,-0.01,-0.00,0.05,249
0.96,0.01,0.03,-0.03,-0.01,0.03,249
0.96,0.01,0.03,-0.03,-0.04,0.05,249
0.96,0.01,0.03,0.00,0.01,0.05,249
0.96,0.01,0.03,0.02,-0.01,0.02,249
0.96,0.01,0.03,-0.00,-0.05,-0.01,249
0.96,0.01,0.03,0.01,0.03,-0.02,249
0.96,0.01,0.03,0.01,0.03,0.00,249
0.96,0.01,0.03,-0.03,-0.02,0.02,249
0.96,0.01,0.03,0.02,-0.02,-0.00,249
0.96,0.01,0.03,0.04,0.01,-0.01,250
0.96,0.01,0.03,0.02,0.02,0.02,249
0.96,0.01,0.03,0.04,0.01,0.02,249
0.96,0.01,0.03,0.00,-0.02,-0.01,249
0.96,0.01,0.03,-0.02,0.01,-0.00,249
0.96,0.01,0.03,0.04,0.06,0.02,249
0.96,0.01,0.03,0.03,0.04,0.00,249
0.96,0.01,0.03,-0.04,-0.01,-0.04,249
0.96,0.01,0.03,-0.01,-0.06,-0.03,249
0.96,0.01,0.03,-0.01,-0.07,-0.01,249
0.96,0.01,0.03,-0.02,-0.03,-0.03,249
0.96,0.01,0.03,-0.02,-0.01,-0.02,249
0.96,0.01,0.03,0.00,0.02,-0.01,249
0.96,0.01,0.03,0.03,0.02,-0.04,249
0.96,0.01,0.03,-0.01,0.02,-0.01,249
0.96,0.01,0.03,-0.03,0.02,0.02,249
0.96,0.01,0.03,0.02,0.01,-0.05,249
0.96,0.01,0.03,0.05,-0.01,-0.06,249
0.96,0.01,0.03,0.03,0.00,-0.03,249
0.96,0.01,0.03,-0.00,0.01,0.01,249
0.96,0.01,0.03,-0.03,0.00,0.05,249
0.96,0.01,0.03,-0.02,-0.01,0.00,249
0.96,0.01,0.03,-0.01,-0.01,-0.02,249
0.96,0.01,0.03,-0.05,0.00,0.03,249
0.96,0.01,0.03,-0.06,0.02,0.05,249
0.96,0.01,0.03,-0.03,0.02,0.01,249
0.96,0.01,0.03,0.02,-0.01,-0.00,249
0.96,0.01,0.03,0.04,-0.01,-0.02,249
0.96,0.01,0.03,0.02,-0.01,-0.03,249
0.96,0.01,0.03,-0.02,-0.01,0.00,249
0.96,0.01,0.03,-0.01,-0.02,-0.01,249
0.96,0.01,0.03,0.02,0.01,-0.00,249
0.96,0.01,0.03,0.02,0.04,-0.02,249
0.96,0.01,0.03,0.03,-0.01,-0.03,249
0.96,0.01,0.03,0.04,-0.03,0.04,249
0.96,0.01,0.03,-0.01,0.01,0.04,249
0.96,0.01,0.03,-0.04,0.01,0.04,249
0.96,0.01,0.03,0.00,0.01,0.00,249
0.96,0.01,0.03,0.00,0.01,-0.05,249
0.96,0.01,0.03,-0.00,-0.01,0.00,249
0.96,0.01,0.03,0.02,-0.01,0.05,249
0.96,0.01,0.03,0.02,-0.02,0.03,249
0.96,0.01,0.03,0.02,-0.04,-0.01,249
0.96,0.01,0.03,-0.00,0.01,-0.06,249
0.96,0.01,0.03,-0.05,0.04,-0.08,249
0.96,0.01,0.03,-0.03,-0.01,-0.03,249
0.96,0.01,0.03,-0.02,-0.03,0.02,249
0.96,0.01,0.03,0.01,0.00,0.02,249
0.96,0.01,0.03,0.03,-0.01,-0.01,249
0.96,0.01,0.03,0.02,-0.03,-0.09,249
0.96,0.01,0.03,0.01,-0.03,-0.07,249
0.96,0.01,0.03,0.01,0.01,-0.03,249
0.96,0.01,0.03,0.04,0.02,-0.06,249
0.96,0.01,0.03,0.04,-0.01,-0.04,249
0.96,0.01,0.03,0.03,-0.04,-0.01,249
0.96,0.01,0.03,0.00,-0.02,-0.01,249
0.96,0.01,0.03,0.00,0.04,-0.02,249
0.96,0.01,0.03,-0.01,0.00,-0.03,249
0.96,0.01,0.03,-0.01,-0.03,0.03,249
0.96,0.01,0.03,0.00,-0.00,0.04,249
0.96,0.01,0.03,0.00,-0.04,0.02,249
0.96,0.01,0.03,0.01,-0.03,0.04,249
0.96,0.01,0.03,0.00,-0.01,0.04,249
0.96,0.01,0.03,-0.03,-0.02,0.02,249
0.96,0.01,0.03,-0.02,-0.00,0.02,249
0.96,0.01,0.03,0.01,0.00,0.00,249
0.96,0.01,0.03,0.02,0.02,-0.01,249
0.96,0.01,0.03,0.04,0.01,0.03,249
0.96,0.01,0.03,0.02,0.03,-0.03,249
0.96,0.01,0.03,-0.02,0.04,-0.05,249
0.96,0.01,0.03,-0.02,-0.01,-0.01,249
0.96,0.01,0.03,-0.01,-0.03,0.05,249
0.96,0.01,0.03,0.00,-0.04,0.04,249
0.96,0.01,0.03,0.02,-0.05,0.02,249
0.96,0.01,0.03,-0.02,-0.01,0.04,249
0.96,0.01,0.03,-0.00,-0.02,0.03,249
0.96,0.01,0.03,0.01,-0.02,0.02,249
0.96,0.01,0.03,-0.02,0.01,0.02,249
0.96,0.01,0.03,0.02,0.02,0.03,249
0.96,0.01,0.03,0.03,-0.00,0.05,249
0.96,0.01,0.03,0.03,-0.04,0.02,249
0.96,0.01,0.03,0.03,-0.01,-0.01,249
0.96,0.01,0.03,-0.01,0.02,-0.03,249
0.96,0.01,0.03,-0.01,0.00,-0.02,249
0.96,0.01,0.03,-0.03,-0.01,-0.01,249
0.96,0.01,0.03,-0.03,-0.01,-0.03,249
0.96,0.01,0.03,0.02,0.00,-0.02,249
0.96,0.01,0.03,0.02,0.02,-0.02,249
0.96,0.01,0.03,0.02,-0.02,-0.01,249
0.96,0.01,0.03,0.06,-0.05,-0.05,249
0.96,0.01,0.03,0.04,-0.01,-0.06,249
0.96,0.01,0.03,0.01,0.03,-0.02,249
0.96,0.01,0.03,-0.01,0.02,-0.01,249
0.96,0.01,0.03,0.00,-0.02,0.00,249
0.96,0.01,0.03,0.02,0.01,0.00,249
0.96,0.01,0.03,-0.00,0.06,-0.04,249
0.96,0.01,0.03,-0.00,0.04,-0.04,249
0.96,0.01,0.03,-0.02,-0.04,-0.00,249
0.96,0.01,0.03,-0.01,-0.00,-0.00,249
0.96,0.01,0.03,0.02,0.03,-0.02,249
0.96,0.01,0.03,0.03,-0.02,0.04,249
0.96,0.01,0.03,0.03,-0.02,0.06,250
0.96,0.01,0.03,0.01,-0.03,0.04,249
0.96,0.01,0.03,0.00,-0.02,-0.01,249
0.96,0.01,0.03,-0.03,-0.04,-0.02,249
0.96,0.01,0.03,-0.04,-0.02,0.00,249
0.96,0.01,0.03,-0.02,0.00,-0.01,249
0.96,0.01,0.03,-0.03,0.00,-0.01,249
0.96,0.01,0.03,-0.03,-0.01,0.00,249
0.96,0.01,0.03,-0.01,0.01,-0.01,249
0.96,0.01,0.03,-0.02,0.03,0.00,249
0.96,0.01,0.03,-0.02,-0.00,-0.01,249
0.96,0.01,0.03,0.01,0.01,-0.01,249
0.96,0.01,0.03,0.05,-0.03,0.02,249
0.96,0.01,0.03,0.02,-0.04,-0.00,249
0.96,0.01,0.03,-0.03,-0.01,0.00,249
0.96,0.01,0.03,-0.05,-0.01,0.03,249
0.96,0.01,0.03,-0.02,-0.02,0.00,249
0.96,0.01,0.03,-0.00,-0.05,-0.02,249
0.96,0.01,0.03,-0.02,-0.02,-0.01,249
0.96,0.01,0.03,-0.01,0.03,-0.01,249
0.96,0.01,0.03,-0.01,0.04,-0.03,249
0.96,0.01,0.03,0.00,0.03,-0.04,249
0.96,0.01,0.03,-0.01,0.01,-0.04,249
0.96,0.01,0.03,-0.03,0.04,-0.03,249
0.96,0.01,0.03,-0.01,0.04,-0.04,249
0.96,0.01,0.03,-0.00,-0.02,-0.05,249
0.96,0.01,0.03,-0.01,-0.01,-0.01,249
0.96,0.01,0.03,-0.01,0.04,0.02,249
0.96,0.01,0.03,0.00,0.01,-0.01,249
0.96,0.01,0.03,-0.01,0.03,-0.01,249
0.96,0.01,0.03,0.02,0.02,-0.01,249
0.96,0.01,0.03,0.04,-0.03,-0.05,249
0.96,0.01,0.03,0.00,0.00,-0.02,249
0.96,0.01,0.03,-0.01,-0.01,0.00,249
0.96,0.01,0.03,-0.01,-0.04,0.04,249
0.96,0.01,0.03,-0.04,-0.02,0.04,249
0.96,0.01,0.03,-0.01,-0.02,0.02,249
0.96,0.01,0.03,0.01,-0.03,0.02,249
0.96,0.01,0.03,-0.01,-0.02,0.04,249
0.96,0.01,0.03,-0.01,0.01,0.04,249
0.96,0.01,0.03,0.00,0.03,0.02,249
0.96,0.01,0.03,-0.01,0.01,-0.02,249
0.96,0.01,0.03,-0.04,-0.02,0.01,249
0.96,0.01,0.03,-0.02,-0.00,0.03,249
0.96,0.01,0.03,-0.02,0.01,0.05,249
0.96,0.01,0.03,-0.02,-0.01,0.05,249
0.96,0.01,0.03,-0.01,0.02,0.00,249
0.96,0.01,0.03,-0.04,0.03,0.00,249
0.96,0.01,0.03,-0.02,0.01,-0.05,249
0.96,0.01,0.03,0.01,-0.04,-0.07,249
0.96,0.01,0.03,-0.02,-0.04,-0.08,249
0.96,0.01,0.03,-0.02,0.00,-0.08,249
0.96,0.01,0.03,0.02,-0.01,-0.04,249
0.96,0.01,0.03,0.02,-0.00,-0.03,250
0.96,0.01,0.03,0.02,0.04,-0.06,249
0.96,0.01,0.03,0.01,0.02,-0.06,249
0.96,0.01,0.03,-0.02,0.01,-0.04,249
0.96,0.01,0.03,0.00,-0.01,-0.02,249
0.96,0.01,0.03,0.01,-0.03,0.00,249
0.96,0.01,0.03,0.00,-0.02,-0.01,249
0.96,0.01,0.03,0.00,-0.02,-0.03,249
0.96,0.01,0.03,0.01,-0.00,0.00,249
0.96,0.01,0.03,0.01,0.01,0.05,249
0.96,0.01,0.03,-0.01,0.03,0.06,249
0.96,0.01,0.03,-0.02,-0.01,0.03,249
0.96,0.01,0.03,-0.03,-0.02,-0.00,249
0.96,0.01,0.03,-0.02,0.02,0.05,249
0.96,0.01,0.03,-0.00,0.01,0.04,249
0.96,0.01,0.03,0.00,0.01,-0.01,249
0.96,0.01,0.03,0.00,0.00,-0.01,249
0.96,0.01,0.03,0.00,-0.02,-0.01,249
0.96,0.01,0.03,0.00,-0.02,0.01,249
0.96,0.01,0.03,0.02,0.01,0.00,249
0.96,0.01,0.03,0.02,-0.00,-0.03,249
0.96,0.01,0.03,0.02,-0.00,-0.04,249
0.96,0.01,0.03,0.00,0.02,0.04,249
0.96,0.01,0.03,-0.01,-0.01,0.02,249
0.96,0.01,0.03,0.00,-0.02,-0.04,249
0.96,0.01,0.03,0.03,0.04,-0.04,249
0.96,0.01,0.03,0.01,0.04,0.00,249
0.96,0.01,0.03,-0.03,-0.01,0.06,249
0.96,0.01,0.03,-0.02,-0.02,0.10,249
0.96,0.01,0.03,-0.03,-0.01,0.05,249
0.96,0.01,0.03,-0.05,0.01,0.04,249
0.96,0.01,0.03,-0.00,0.00,0.01,249
0.96,0.01,0.03,0.02,0.00,-0.05,249
0.96,0.01,0.03,0.00,0.00,-0.03,249
0.96,0.01,0.03,0.06,-0.01,-0.04,249
0.96,0.01,0.03,0.04,0.01,-0.07,249
0.96,0.01,0.03,-0.01,-0.01,-0.03,249
0.96,0.01,0.03,-0.01,-0.04,0.03,249
0.96,0.01,0.03,-0.01,-0.01,0.05,249
0.96,0.01,0.03,-0.01,0.01,0.03,249
0.96,0.01,0.03,-0.01,0.00,-0.01,249
0.96,0.01,0.03,0.02,0.00,-0.02,249
0.96,0.01,0.03,0.00,0.01,-0.02,249
0.96,0.01,0.03,-0.03,0.00,-0.02,249
0.96,0.01,0.03,0.00,0.01,-0.03,249
0.96,0.01,0.03,0.00,0.03,-0.03,249
0.96,0.01,0.03,-0.03,0.01,-0.01,249
0.96,0.01,0.03,0.00,0.01,0.00,249
0.96,0.01,0.03,0.03,-0.01,-0.02,249
0.96,0.01,0.03,-0.01,-0.03,-0.04,249
0.96,0.01,0.03,-0.06,0.03,-0.01,249
0.96,0.01,0.03,-0.05,0.03,0.00,249
0.96,0.01,0.03,-0.02,-0.00,-0.02,249
0.96,0.01,0.03,0.02,0.03,-0.02,249
0.96,0.01,0.03,0.01,0.06,-0.03,249
0.96,0.01,0.03,-0.04,0.05,-0.03,249
0.96,0.01,0.03,0.00,0.02,0.01,249
0.96,0.01,0.03,0.03,0.01,-0.04,249
0.96,0.01,0.03,-0.00,-0.01,-0.04,249
0.96,0.01,0.03,-0.01,-0.01,-0.01,249
0.96,0.01,0.03,0.03,-0.01,-0.01,249
0.96,0.01,0.03,0.04,-0.01,-0.01,249
0.96,0.01,0.03,0.01,0.01,-0.00,249
0.96,0.01,0.03,0.01,0.00,0.02,249
0.96,0.01,0.03,-0.00,-0.02,0.03,249
0.96,0.01,0.03,0.01,-0.02,0.05,249
0.96,0.01,0.03,0.04,-0.02,0.06,249
0.96,0.01,0.03,0.01,-0.02,0.02,249
0.96,0.01,0.03,0.01,0.00,0.00,249
0.96,0.01,0.03,0.00,-0.01,0.01,249
0.96,0.01,0.03,0.00,-0.04,-0.04,249
0.96,0.01,0.03,0.02,-0.02,-0.04,249
0.96,0.01,0.03,0.02,-0.00,0.03,249
0.96,0.01,0.03,0.04,-0.01,0.01,249
0.96,0.01,0.03,-0.00,-0.00,-0.01,249
0.96,0.01,0.03,0.00,0.01,0.00,249
0.96,0.01,0.03,0.01,-0.01,0.00,249
0.96,0.01,0.03,-0.01,-0.01,0.00,249
0.96,0.01,0.03,0.00,-0.02,-0.02,249
0.96,0.01,0.03,-0.01,-0.02,-0.00,249
0.96,0.01,0.03,0.01,0.00,0.00,249
0.96,0.01,0.03,-0.02,0.01,-0.02,249
0.96,0.01,0.03,-0.02,0.00,-0.01,249
0.96,0.01,0.03,0.02,-0.02,-0.01,249
0.96,0.01,0.03,0.03,-0.01,0.00,249
0.96,0.01,0.03,0.00,-0.02,0.02,249
0.96,0.01,0.03,0.02,-0.03,-0.00,249
0.96,0.01,0.03,0.04,-0.01,-0.04,249
0.96,0.01,0.03,0.02,-0.01,0.01,249
0.96,0.01,0.03,0.03,-0.03,0.05,249
0.96,0.01,0.03,0.04,-0.04,-0.02,249
0.96,0.01,0.03,-0.01,0.01,-0.03,249
0.96,0.01,0.03,-0.03,0.02,0.03,249
0.96,0.01,0.03,-0.02,0.01,0.04,249
0.96,0.01,0.03,-0.01,0.04,0.04,249
0.96,0.01,0.03,-0.01,0.01,0.05,249
0.96,0.01,0.03,-0.05,-0.01,0.02,249
0.96,0.01,0.03,-0.05,-0.02,0.02,249
0.96,0.01,0.03,-0.01,0.01,0.04,249
0.96,0.01,0.03,0.02,0.04,0.02,249
0.96,0.01,0.03,0.02,0.02,0.02,249
0.96,0.01,0.03,-0.01,0.00,0.02,249
0.96,0.01,0.03,0.04,0.01,0.01,249
0.96,0.01,0.03,0.05,0.02,0.04,249
0.96,0.01,0.03,0.01,-0.01,0.05,249
0.96,0.01,0.03,0.02,-0.04,-0.01,249
0.96,0.01,0.03,0.03,-0.05,-0.04,249
0.96,0.01,0.03,0.01,-0.04,-0.01,249
0.96,0.01,0.03,0.04,-0.02,0.01,249
0.96,0.01,0.03,0.03,0.03,-0.02,250
0.96,0.01,0.03,0.01,0.05,-0.04,249
0.96,0.01,0.03,0.02,0.00,-0.02,249
0.96,0.01,0.03,-0.01,-0.01,-0.03,249
0.96,0.01,0.03,0.00,-0.01,-0.01,249
0.96,0.01,0.03,0.01,-0.02,0.01,249
0.96,0.01,0.03,-0.03,0.01,0.04,249
0.96,0.01,0.03,-0.01,0.03,0.01,249
0.96,0.01,0.03,-0.00,0.01,-0.05,249
0.96,0.01,0.03,-0.02,-0.02,-0.06,249
0.96,0.01,0.03,0.00,-0.02,-0.01,249
0.96,0.01,0.03,0.00,-0.03,0.02,249
0.96,0.01,0.03,-0.00,-0.01,0.01,249
0.96,0.01,0.03,-0.01,0.02,0.05,249
0.96,0.01,0.03,0.01,-0.00,0.07,249
0.96,0.01,0.03,0.03,0.01,0.05,249
0.96,0.01,0.03,0.01,-0.01,0.04,249
0.96,0.01,0.03,0.01,-0.02,0.03,249
0.96,0.01,0.03,0.02,0.01,-0.01,249
0.96,0.01,0.03,-0.03,0.02,-0.01,249
0.96,0.01,0.03,-0.05,0.01,-0.01,249
0.96,0.01,0.03,0.00,0.03,-0.01,249
0.96,0.01,0.03,0.04,0.03,0.04,250
0.96,0.01,0.03,0.03,0.03,0.03,249
0.96,0.01,0.03,0.03,0.03,0.02,249
0.96,0.01,0.03,0.03,0.02,0.01,249
0.96,0.01,0.03,0.04,-0.01,0.01,249
0.96,0.01,0.03,0.05,-0.02,-0.00,249
0.96,0.01,0.03,0.03,-0.06,-0.05,249
0.96,0.01,0.03,-0.01,-0.03,-0.02,249
0.96,0.01,0.03,-0.01,0.01,0.03,249
0.96,0.01,0.03,0.02,-0.00,0.02,249
0.96,0.01,0.03,0.01,0.02,-0.04,249
0.96,0.01,0.03,-0.03,-0.01,-0.05,249
0.96,0.01,0.03,-0.03,-0.01,-0.03,249
0.96,0.01,0.03,0.01,-0.03,-0.01,249
0.96,0.01,0.03,0.01,-0.02,0.00,249
0.96,0.01,0.03,-0.02,-0.01,-0.03,249
0.96,0.01,0.03,0.01,0.01,-0.02,249
0.96,0.01,0.03,0.02,0.03,0.01,249
0.96,0.01,0.03,-0.01,0.01,-0.00,249
0.96,0.01,0.03,-0.01,0.01,-0.01,249
0.96,0.01,0.03,-0.01,0.01,-0.02,249
0.96,0.01,0.03,-0.04,-0.00,-0.02,249
0.96,0.01,0.03,-0.04,0.00,0.00,249
0.96,0.01,0.03,0.00,-0.03,-0.00,249
0.96,0.01,0.03,0.03,-0.07,0.01,250
0.96,0.01,0.03,0.01,-0.02,0.02,249
0.96,0.01,0.03,-0.01,0.04,-0.02,249
0.96,0.01,0.03,-0.00,0.02,0.02,249
0.96,0.01,0.03,0.02,-0.02,0.03,249
0.96,0.01,0.03,0.06,0.02,0.02,249
0.96,0.01,0.03,0.09,0.01,0.03,250
0.96,0.01,0.03,0.04,-0.01,0.03,249
0.96,0.01,0.03,0.00,-0.01,0.05,249
0.96,0.01,0.03,0.02,0.02,0.02,249
0.96,0.01,0.03,0.02,0.03,0.01,249
0.96,0.01,0.03,0.03,0.00,0.02,249
0.96,0.01,0.03,0.03,-0.01,0.03,249
0.96,0.01,0.03,0.00,-0.01,0.04,250
0.96,0.01,0.03,-0.02,-0.02,0.02,249
0.96,0.01,0.03,-0.05,0.01,0.04,249
0.96,0.01,0.03,-0.02,0.03,0.01,249
0.96,0.01,0.03,-0.00,0.01,-0.03,249
0.96,0.01,0.03,0.01,-0.01,0.01,249
0.96,0.01,0.03,0.00,0.01,-0.06,249
0.96,0.01,0.03,-0.03,0.01,-0.07,249
0.96,0.01,0.03,-0.01,-0.03,-0.02,249
0.96,0.01,0.03,-0.03,-0.04,-0.04,249
0.96,0.01,0.03,-0.03,-0.02,-0.04,249
0.96,0.01,0.03,-0.00,-0.00,-0.03,249
0.96,0.01,0.03,0.00,-0.04,-0.02,249
0.96,0.01,0.03,0.02,-0.04,-0.03,249
0.96,0.01,0.03,-0.01,-0.01,0.00,249
0.96,0.01,0.03,-0.00,-0.01,0.01,249
0.96,0.01,0.03,0.00,0.01,0.00,249
0.96,0.01,0.03,0.01,-0.01,0.04,249
0.96,0.01,0.03,-0.00,-0.05,0.02,249
0.96,0.01,0.03,-0.04,-0.01,-0.04,249
0.96,0.01,0.03,-0.02,0.02,-0.07,249
0.96,0.01,0.03,0.01,-0.01,-0.03,249
0.96,0.01,0.03,-0.02,-0.02,0.02,249
0.96,0.01,0.03,-0.03,0.01,0.08,249
0.96,0.01,0.03,0.02,0.01,0.06,249
0.96,0.01,0.03,0.02,0.03,-0.01,249
0.96,0.01,0.03,0.01,0.01,-0.01,249
0.96,0.01,0.03,-0.01,-0.02,-0.01,249
0.96,0.01,0.03,-0.00,-0.01,0.01,249
0.96,0.01,0.03,0.01,-0.01,0.02,249
0.96,0.01,0.03,-0.01,0.02,-0.01,249
0.96,0.01,0.03,-0.02,0.07,0.04,249
0.96,0.01,0.03,-0.01,-0.01,0.07,249
0.96,0.01,0.03,0.01,-0.05,0.02,249
0.96,0.01,0.03,0.02,-0.01,0.05,249
0.96,0.01,0.03,0.02,0.01,0.03,249
0.96,0.01,0.03,0.02,0.01,-0.02,249
0.96,0.01,0.03,0.02,-0.02,0.00,249
0.96,0.01,0.03,0.02,0.00,-0.01,249
0.96,0.01,0.03,-0.00,0.03,-0.01,249
0.96,0.01,0.03,-0.00,0.00,0.00,249
0.96,0.01,0.03,0.03,-0.02,-0.01,249
0.96,0.01,0.03,0.02,-0.04,-0.03,249
0.96,0.01,0.03,0.00,-0.01,-0.03,249
0.96,0.01,0.03,-0.02,0.00,0.02,249
0.96,0.01,0.03,-0.01,0.03,-0.01,249
0.96,0.01,0.03,0.00,0.05,0.00,249
0.96,0.01,0.03,-0.01,0.00,0.03,250
0.96,0.01,0.03,0.02,-0.01,-0.03,249
0.96,0.01,0.03,0.00,-0.00,-0.03,249
0.96,0.01,0.03,-0.03,-0.01,-0.01,249
0.96,0.01,0.03,-0.02,-0.02,-0.03,249
0.96,0.01,0.03,-0.03,0.01,-0.05,249
0.96,0.01,0.03,-0.03,0.02,-0.02,249
0.96,0.01,0.03,-0.01,0.02,0.04,249
0.96,0.01,0.03,0.01,-0.01,0.02,249
0.96,0.01,0.03,0.02,-0.01,-0.03,249
0.96,0.01,0.03,0.01,0.01,0.00,249
0.96,0.01,0.03,-0.02,0.03,0.05,249
0.96,0.01,0.03,-0.04,-0.00,0.02,249
0.96,0.01,0.03,-0.03,-0.03,-0.01,249
0.96,0.01,0.03,-0.03,-0.01,-0.01,249
0.96,0.01,0.03,-0.00,-0.02,0.03,249
0.96,0.01,0.03,0.00,0.01,0.03,249
0.96,0.01,0.03,0.00,0.01,0.01,249
0.96,0.01,0.03,-0.02,-0.01,-0.01,249
0.96,0.01,0.03,-0.06,-0.01,-0.02,249
0.96,0.01,0.03,-0.03,-0.04,-0.00,249
0.96,0.01,0.03,0.01,-0.04,0.02,249
0.96,0.01,0.03,0.02,0.03,0.05,249
0.96,0.01,0.03,0.01,0.03,-0.00,249
0.96,0.01,0.03,0.00,-0.00,-0.06,249
0.96,0.01,0.03,0.03,0.03,-0.04,249
0.96,0.01,0.03,0.02,-0.00,-0.01,249
0.96,0.01,0.03,0.01,-0.01,-0.01,249
0.96,0.01,0.03,0.01,-0.01,-0.03,249
0.96,0.01,0.03,-0.01,-0.04,-0.06,249
0.96,0.01,0.03,-0.06,-0.01,-0.01,249
0.96,0.01,0.03,-0.03,0.04,0.04,249
0.96,0.01,0.03,0.01,0.04,-0.02,249
0.96,0.01,0.03,-0.01,0.01,-0.00,249
0.96,0.01,0.03,-0.01,0.02,0.00,249
0.96,0.01,0.03,-0.03,0.03,0.00,249
0.96,0.01,0.03,-0.04,0.01,0.00,249
0.96,0.01,0.03,-0.01,0.02,0.00,249
0.96,0.01,0.03,0.02,0.02,0.04,249
0.96,0.01,0.03,0.00,0.03,0.03,249
0.96,0.01,0.03,-0.02,0.01,-0.01,249
0.96,0.01,0.03,-0.02,-0.03,0.02,249
0.96,0.01,0.03,-0.01,-0.05,0.07,249
0.96,0.01,0.03,0.00,-0.04,0.06,249
0.96,0.01,0.03,0.01,-0.01,0.04,249
0.96,0.01,0.03,-0.01,-0.01,-0.02,249
0.96,0.01,0.03,0.00,-0.00,-0.03,249
0.96,0.01,0.03,0.00,0.03,0.01,249
0.96,0.01,0.03,-0.03,-0.00,0.02,249
0.96,0.01,0.03,0.03,-0.04,-0.01,249
0.96,0.01,0.03,0.04,-0.01,-0.04,249
0.96,0.01,0.03,-0.02,0.01,-0.00,249
0.96,0.01,0.03,-0.06,-0.01,-0.03,249
0.96,0.01,0.03,-0.03,-0.01,-0.04,249
0.96,0.01,0.03,0.02,0.02,-0.06,249
0.96,0.01,0.03,-0.00,0.02,-0.04,249
0.96,0.01,0.03,0.00,0.02,-0.01,249
0.96,0.01,0.03,0.00,0.02,-0.01,249
0.96,0.01,0.03,0.00,-0.02,-0.03,249
0.96,0.01,0.03,0.02,-0.04,-0.03,249
0.96,0.01,0.03,-0.01,-0.03,-0.03,250
0.96,0.01,0.03,-0.03,-0.01,-0.02,249
0.96,0.01,0.03,-0.01,0.01,-0.01,249
0.96,0.01,0.03,0.02,0.03,-0.06,249
0.96,0.01,0.03,0.04,0.03,-0.06,249
0.96,0.01,0.03,0.05,0.00,-0.07,249
0.96,0.01,0.03,0.02,-0.03,-0.06,249
0.96,0.01,0.03,-0.01,-0.03,0.01,249
0.96,0.01,0.03,0.00,-0.03,0.04,249
0.96,0.01,0.03,-0.01,-0.02,0.02,249
0.96,0.01,0.03,-0.05,-0.01,0.02,249
0.96,0.01,0.03,-0.06,-0.01,0.00,249
0.96,0.01,0.03,-0.01,0.03,-0.01,249
0.96,0.01,0.03,0.04,-0.01,0.03,249
0.96,0.01,0.03,0.04,-0.04,0.02,249
0.96,0.01,0.03,0.02,-0.03,0.05,249
0.96,0.01,0.03,0.01,-0.01,0.05,249
0.96,0.01,0.03,0.03,-0.01,-0.01,249
0.96,0.01,0.03,0.02,-0.03,0.01,249
0.96,0.01,0.03,-0.01,-0.05,0.02,249
0.96,0.01,0.03,0.00,-0.06,-0.03,249
0.96,0.01,0.03,0.02,-0.02,0.00,249
0.96,0.01,0.03,0.00,0.01,0.02,249
0.96,0.01,0.03,0.02,0.03,0.01,249
0.96,0.01,0.03,0.02,0.04,0.02,249
0.96,0.01,0.03,-0.03,-0.01,0.01,249
0.96,0.01,0.03,-0.04,-0.02,-0.03,249
0.96,0.01,0.03,0.01,0.00,-0.02,249
0.96,0.01,0.03,0.02,-0.02,0.00,249
0.96,0.01,0.03,-0.01,-0.04,-0.02,249
0.96,0.01,0.03,0.00,-0.02,-0.02,249
0.96,0.01,0.03,0.00,-0.02,-0.01,249
0.96,0.01,0.03,-0.03,-0.00,-0.04,249
0.96,0.01,0.03,-0.03,0.00,-0.05,249
0.96,0.01,0.03,0.02,-0.00,-0.02,249
0.96,0.01,0.03,0.02,0.03,0.03,249
0.96,0.01,0.03,-0.00,0.02,0.01,249
0.96,0.01,0.03,0.00,-0.02,-0.01,249
0.96,0.01,0.03,-0.00,0.02,-0.00,249
0.96,0.01,0.03,0.02,0.03,-0.02,249
0.96,0.01,0.03,0.03,0.00,-0.01,249
0.96,0.01,0.03,0.03,0.00,0.01,249
0.96,0.01,0.03,-0.03,-0.03,0.01,249
0.96,0.01,0.03,-0.06,-0.04,0.04,249
0.96,0.01,0.03,-0.06,-0.02,0.02,249
0.96,0.01,0.03,-0.05,-0.00,0.00,249
0.96,0.01,0.03,-0.01,-0.01,-0.01,249
0.96,0.01,0.03,0.01,-0.00,-0.01,249
0.96,0.01,0.03,0.02,0.02,0.04,249
0.96,0.01,0.03,0.00,-0.01,0.02,249
0.96,0.01,0.03,0.00,-0.06,0.01,249
0.96,0.01,0.03,0.03,-0.06,0.00,249
0.96,0.01,0.03,0.01,-0.02,0.01,249
0.96,0.01,0.03,-0.01,-0.01,0.02,249
0.96,0.01,0.03,0.02,-0.00,-0.01,249
0.96,0.01,0.03,0.04,-0.04,-0.05,249
0.96,0.01,0.03,0.05,-0.03,-0.04,249
0.96,0.01,0.03,0.03,-0.01,0.04,249
0.96,0.01,0.03,-0.03,-0.03,0.04,249
0.96,0.01,0.03,-0.03,-0.03,-0.01,249
0.96,0.01,0.03,0.03,-0.01,-0.04,249
0.96,0.01,0.03,0.03,0.03,-0.06,249
0.96,0.01,0.03,-0.00,0.06,-0.05,249
0.96,0.01,0.03,0.02,0.04,-0.02,249
0.96,0.01,0.03,0.04,-0.03,0.01,249
0.96,0.01,0.03,0.01,-0.02,0.01,249
0.96,0.01,0.03,0.00,0.03,-0.02,249
0.96,0.01,0.03,0.01,0.03,-0.04,249
0.96,0.01,0.03,-0.01,-0.01,-0.06,249
0.96,0.01,0.03,0.01,0.01,-0.01,249
0.96,0.01,0.03,0.03,0.03,0.03,249
0.96,0.01,0.03,0.00,0.01,0.04,249
0.96,0.01,0.03,0.02,0.01,0.03,250
0.96,0.01,0.03,0.04,0.00,0.04,249
0.96,0.01,0.03,0.01,0.02,0.07,249
0.96,0.01,0.03,0.00,0.04,0.04,249
0.96,0.01,0.03,0.01,0.03,0.02,249
0.96,0.01,0.03,0.01,-0.00,0.04,249
0.96,0.01,0.03,-0.01,0.00,0.05,249
0.96,0.01,0.03,-0.01,0.03,0.02,249
0.96,0.01,0.03,0.01,-0.01,0.01,249
0.96,0.01,0.03,-0.01,-0.04,-0.00,249
0.96,0.01,0.03,-0.01,-0.00,-0.03,249
0.96,0.01,0.03,0.03,0.00,-0.01,249
0.96,0.01,0.03,0.03,0.00,-0.01,249
0.96,0.01,0.03,0.01,0.01,0.03,249
0.96,0.01,0.03,0.02,0.00,0.03,249
0.96,0.01,0.03,0.02,0.02,-0.00,249
0.96,0.01,0.03,0.02,0.01,0.01,249
0.96,0.01,0.03,-0.00,0.01,-0.02,249
0.96,0.01,0.03,-0.00,0.02,-0.03,249
0.96,0.01,0.03,0.02,-0.01,0.00,249
0.96,0.01,0.03,0.02,-0.00,0.02,249
0.96,0.01,0.03,0.03,0.01,-0.01,249
0.96,0.01,0.03,0.03,-0.03,-0.06,249
0.96,0.01,0.03,0.00,-0.03,-0.04,249
0.96,0.01,0.03,-0.03,0.01,-0.01,249
0.96,0.01,0.03,-0.03,0.02,-0.01,249
0.96,0.01,0.03,-0.02,-0.00,0.01,249
0.96,0.01,0.03,-0.01,-0.04,-0.03,249
0.96,0.01,0.03,-0.03,-0.02,-0.02,249
0.96,0.01,0.03,-0.02,-0.01,0.01,249
0.96,0.01,0.03,0.01,-0.00,-0.01,249
0.96,0.01,0.03,-0.00,0.03,-0.03,249
0.96,0.01,0.03,-0.04,0.03,0.01,249
0.96,0.01,0.03,-0.05,-0.02,0.01,249
0.96,0.01,0.03,0.02,-0.03,-0.01,249
0.96,0.01,0.03,0.03,-0.00,-0.00,249
0.96,0.01,0.03,-0.02,-0.00,-0.02,249
0.96,0.01,0.03,-0.03,0.03,-0.03,249
0.96,0.01,0.03,-0.01,0.04,-0.02,249
0.96,0.01,0.03,-0.01,0.01,0.02,249
0.96,0.01,0.03,-0.01,0.03,0.04,249
0.96,0.01,0.03,0.00,0.04,0.02,249
0.96,0.01,0.03,-0.01,0.03,0.00,249
0.96,0.01,0.03,-0.02,0.05,0.00,249
0.96,0.01,0.03,-0.03,0.02,0.04,249
0.96,0.01,0.03,-0.00,-0.05,0.00,249
0.96,0.01,0.03,0.03,-0.07,-0.01,249
0.96,0.01,0.03,0.02,-0.04,-0.02,249
0.96,0.01,0.03,0.00,0.01,-0.04,249
0.96,0.01,0.03,0.03,-0.00,-0.02,249
0.96,0.01,0.03,0.03,-0.03,-0.03,249
0.96,0.01,0.03,0.00,-0.00,-0.03,249
0.96,0.01,0.03,0.00,0.01,-0.01,249
0.96,0.01,0.03,0.00,-0.02,-0.01,249
0.96,0.01,0.03,0.00,-0.02,-0.02,249
0.96,0.01,0.03,0.03,-0.03,-0.02,249
0.96,0.01,0.03,0.02,-0.02,-0.02,249
0.96,0.01,0.03,-0.02,0.01,-0.02,249
0.96,0.01,0.03,-0.01,0.03,0.05,249
0.96,0.01,0.03,0.00,0.03,0.03,249
0.96,0.01,0.03,-0.02,-0.01,-0.06,249
0.96,0.01,0.03,0.01,0.00,-0.06,249
0.96,0.01,0.03,0.03,0.04,-0.01,249
0.96,0.01,0.03,0.02,0.03,0.04,249
0.96,0.01,0.03,-0.01,0.03,0.03,249
0.96,0.01,0.03,-0.01,0.03,-0.00,249
0.96,0.01,0.03,0.01,0.01,-0.01,249
0.96,0.01,0.03,0.01,-0.04,0.02,249
0.96,0.01,0.03,0.02,-0.05,0.01,249
0.96,0.01,0.03,0.02,-0.02,0.03,249
0.96,0.01,0.03,0.02,0.03,0.01,249
0.96,0.01,0.03,-0.01,-0.01,-0.01,249
0.96,0.01,0.03,0.02,-0.03,0.05,249
0.96,0.01,0.03,0.04,0.03,0.01,249
0.96,0.01,0.03,0.02,0.03,-0.01,249
0.96,0.01,0.03,0.01,0.03,0.03,249
0.96,0.01,0.03,-0.01,0.03,0.01,249
0.96,0.01,0.03,0.02,0.02,-0.01,249
0.96,0.01,0.03,0.03,0.02,-0.01,249
0.96,0.01,0.03,0.01,0.03,-0.03,249
0.96,0.01,0.03,0.02,0.03,-0.02,249
0.96,0.01,0.03,-0.02,0.01,-0.00,249
0.96,0.01,0.03,-0.03,0.02,0.00,249
0.96,0.01,0.03,0.02,0.03,-0.01,249
0.96,0.01,0.03,0.02,0.03,-0.05,249
0.96,0.01,0.03,-0.01,0.03,-0.02,249
0.96,0.01,0.03,-0.02,0.03,0.04,249
0.96,0.01,0.03,0.01,-0.00,0.01,249
0.96,0.01,0.03,0.00,-0.05,-0.02,249
0.96,0.01,0.03,-0.02,-0.01,0.01,249
0.96,0.01,0.03,-0.05,-0.02,0.01,249
0.96,0.01,0.03,0.03,0.02,0.01,249
0.96,0.01,0.03,0.03,0.05,0.01,249
0.96,0.01,0.03,-0.03,-0.01,-0.01,249
0.96,0.01,0.03,0.00,-0.01,-0.03,249
0.96,0.01,0.03,-0.01,0.04,-0.01,249
0.96,0.01,0.03,-0.02,0.04,-0.01,249
0.96,0.01,0.03,0.02,0.01,-0.04,250
0.96,0.01,0.03,0.04,-0.00,0.01,249
0.96,0.01,0.03,-0.00,-0.01,0.01,249
0.96,0.01,0.03,-0.03,-0.03,0.01,249
0.96,0.01,0.03,-0.01,-0.02,0.07,249
0.96,0.01,0.03,-0.02,-0.01,0.05,249
0.96,0.01,0.03,-0.03,-0.02,0.03,249
0.96,0.01,0.03,-0.02,-0.02,0.02,249
0.96,0.01,0.03,-0.01,-0.01,-0.01,249
0.96,0.01,0.03,-0.01,-0.01,0.03,249
0.96,0.01,0.03,0.01,0.01,0.07,249
0.96,0.01,0.03,0.02,0.02,0.05,249
0.96,0.01,0.03,0.02,0.01,0.04,249
0.96,0.01,0.03,0.01,-0.03,0.00,249
0.96,0.01,0.03,-0.01,-0.02,-0.02,249
0.96,0.01,0.03,-0.00,0.00,-0.01,249
0.96,0.01,0.03,0.03,0.01,0.03,249
0.96,0.01,0.03,0.02,0.01,0.04,249
0.96,0.01,0.03,-0.01,0.02,0.04,249
0.96,0.01,0.03,-0.00,0.03,0.01,249
0.96,0.01,0.03,0.01,-0.00,-0.06,249
0.96,0.01,0.03,0.00,0.00,-0.04,249
0.96,0.01,0.03,-0.04,-0.01,-0.04,249
0.96,0.01,0.03,-0.05,-0.02,-0.03,249
0.96,0.01,0.03,-0.01,-0.01,-0.03,249
0.96,0.01,0.03,-0.04,-0.02,-0.01,249
0.96,0.01,0.03,-0.05,0.03,0.05,249
0.96,0.01,0.03,0.00,0.05,0.03,249
0.96,0.01,0.03,0.05,0.03,0.00,249
0.96,0.01,0.03,0.06,0.03,0.00,249
0.96,0.01,0.03,0.02,0.01,-0.04,249
0.96,0.01,0.03,0.01,-0.01,-0.03,249
0.96,0.01,0.03,0.02,-0.00,0.02,249
0.96,0.01,0.03,0.04,0.05,0.02,249
0.96,0.01,0.03,0.04,0.04,0.02,249
0.96,0.01,0.03,0.02,-0.00,0.04,249
0.96,0.01,0.03,0.01,0.03,0.04,249
0.96,0.01,0.03,0.00,0.04,0.03,249
0.96,0.01,0.03,0.00,0.03,0.07,249
0.96,0.01,0.03,0.00,0.03,0.06,249
0.96,0.01,0.03,0.01,0.04,0.03,249
0.96,0.01,0.03,0.03,0.03,0.04,249
0.96,0.01,0.03,0.00,-0.04,0.02,249
0.96,0.01,0.03,-0.03,-0.06,0.03,249
0.96,0.01,0.03,-0.01,-0.04,0.03,249
0.96,0.01,0.03,0.00,-0.05,0.00,249
0.96,0.01,0.03,-0.01,-0.05,-0.01,249
0.96,0.01,0.03,0.00,-0.03,0.02,249
0.96,0.01,0.03,0.00,-0.04,-0.01,250
0.96,0.01,0.03,-0.01,-0.06,-0.04,249
0.96,0.01,0.03,0.00,-0.03,-0.01,249
0.96,0.01,0.03,0.00,-0.01,-0.04,249
0.96,0.01,0.03,0.04,-0.04,-0.07,249
0.96,0.01,0.03,0.03,-0.00,-0.04,249
0.96,0.01,0.03,-0.01,0.01,0.00,249
0.96,0.01,0.03,-0.02,0.03,0.04,249
0.96,0.01,0.03,-0.04,0.06,0.01,249
0.96,0.01,0.03,-0.03,0.04,-0.04,249
0.96,0.01,0.03,-0.02,0.03,-0.08,249
0.96,0.01,0.03,0.01,0.01,-0.07,249
0.96,0.01,0.03,0.03,0.01,-0.01,249
0.96,0.01,0.03,0.03,-0.01,-0.00,249
0.96,0.01,0.03,0.02,-0.02,-0.01,249
0.96,0.01,0.03,-0.01,-0.00,0.02,249
0.96,0.01,0.03,0.01,0.01,0.00,249
0.96,0.01,0.03,0.04,0.00,0.00,249
0.96,0.01,0.03,0.04,-0.01,-0.01,249
0.96,0.01,0.03,-0.00,0.00,-0.01,249
0.96,0.01,0.03,-0.03,0.00,0.01,249
0.96,0.01,0.03,-0.00,-0.02,0.00,249
0.96,0.01,0.03,-0.02,-0.02,0.04,249
0.96,0.01,0.03,-0.04,-0.02,0.05,249
0.96,0.01,0.03,-0.03,0.00,0.01,249
0.96,0.01,0.03,0.03,0.01,-0.03,249
0.96,0.01,0.03,0.05,-0.02,-0.04,249
0.96,0.01,0.03,0.01,-0.00,-0.02,249
0.96,0.01,0.03,-0.00,0.01,-0.03,249
0.96,0.01,0.03,0.02,-0.01,-0.03,249
0.96,0.01,0.03,0.00,-0.00,0.00,249
0.96,0.01,0.03,-0.01,0.01,0.00,249
0.96,0.01,0.03,0.00,0.02,-0.02,249
0.96,0.01,0.03,-0.05,-0.01,-0.01,249
0.96,0.01,0.03,-0.08,-0.03,0.00,249
0.96,0.01,0.03,-0.03,0.01,0.00,249
0.96,0.01,0.03,0.00,0.00,-0.03,249
0.96,0.01,0.03,0.00,-0.04,-0.03,249
0.96,0.01,0.03,-0.01,-0.03,-0.01,249
0.96,0.01,0.03,-0.02,-0.01,-0.01,249
0.96,0.01,0.03,-0.02,-0.01,0.03,249
0.96,0.01,0.03,-0.00,-0.01,-0.01,249
0.96,0.01,0.03,-0.00,0.03,-0.04,249
0.96,0.01,0.03,-0.02,0.05,0.00,249
0.96,0.01,0.03,-0.01,0.03,0.00,249
0.96,0.01,0.03,0.02,0.03,0.01,250
0.96,0.01,0.03,0.04,0.03,-0.01,249
0.96,0.01,0.03,0.03,0.01,-0.03,249
0.96,0.01,0.03,-0.02,-0.01,0.00,249
0.96,0.01,0.03,-0.04,-0.04,0.01,249
0.96,0.01,0.03,-0.03,-0.04,0.00,249
0.96,0.01,0.03,-0.04,0.03,0.03,249
0.96,0.01,0.03,-0.01,0.04,0.04,249
0.96,0.01,0.03,0.02,0.03,0.04,249
0.96,0.01,0.03,-0.02,0.03,0.02,249
0.96,0.01,0.03,-0.03,-0.00,-0.01,249
0.96,0.01,0.03,-0.01,-0.01,0.00,249
0.96,0.01,0.03,0.01,-0.01,0.04,249
0.96,0.01,0.03,0.00,-0.02,0.04,249
0.96,0.01,0.03,-0.01,-0.01,0.01,249
0.96,0.01,0.03,0.00,-0.01,0.03,249
0.96,0.01,0.03,0.04,-0.00,0.04,249
0.96,0.01,0.03,0.02,0.02,0.02,249
0.96,0.01,0.03,-0.01,0.03,0.02,249
0.96,0.01,0.03,-0.01,0.03,0.00,249
0.96,0.01,0.03,-0.01,0.00,0.01,249
0.96,0.01,0.03,-0.03,0.00,-0.01,249
0.96,0.01,0.03,-0.04,0.02,-0.02,249
0.96,0.01,0.03,-0.03,0.04,0.01,249
0.96,0.01,0.03,-0.03,0.03,-0.00,249
0.96,0.01,0.03,0.00,0.02,0.00,249
0.96,0.01,0.03,0.02,0.06,-0.00,249
0.96,0.01,0.03,0.01,0.06,-0.03,249
0.96,0.01,0.03,-0.01,0.01,-0.02,249
0.96,0.01,0.03,-0.00,0.02,-0.01,249
0.96,0.01,0.03,0.01,0.06,0.02,249
0.96,0.01,0.03,0.00,0.03,0.02,249
0.96,0.01,0.03,0.03,-0.05,0.02,249
0.96,0.01,0.03,0.02,-0.01,0.07,249
0.96,0.01,0.03,0.00,0.02,0.05,249
0.96,0.01,0.03,0.02,0.01,0.00,249
0.96,0.01,0.03,0.03,0.03,0.05,249
0.96,0.01,0.03,-0.00,-0.00,0.03,249
0.96,0.01,0.03,-0.00,0.00,0.01,249
0.96,0.01,0.03,0.00,0.00,0.04,249
0.96,0.01,0.03,-0.01,-0.01,0.02,249
0.96,0.01,0.03,0.00,0.00,-0.00,249
0.96,0.01,0.03,-0.00,-0.00,-0.01,249
0.96,0.01,0.03,-0.01,-0.01,0.01,249
0.96,0.01,0.03,0.01,-0.01,0.05,249
0.96,0.01,0.03,0.04,-0.03,0.00,249
0.96,0.01,0.03,0.00,-0.03,-0.06,249
0.96,0.01,0.03,-0.03,-0.01,-0.05,249
0.96,0.01,0.03,-0.03,0.03,-0.03,249
0.96,0.01,0.03,-0.03,0.04,-0.02,249
0.96,0.01,0.03,-0.01,0.03,-0.03,249
0.96,0.01,0.03,0.00,0.02,-0.02,249
0.96,0.01,0.03,-0.03,0.01,-0.03,249
0.96,0.01,0.03,-0.03,0.01,-0.04,249
0.96,0.01,0.03,0.01,-0.04,-0.03,249
0.96,0.01,0.03,-0.00,-0.05,-0.00,249
0.96,0.01,0.03,0.00,-0.01,0.00,249
0.96,0.01,0.03,0.04,0.01,0.01,249
0.96,0.01,0.03,0.03,-0.02,0.01,249
0.96,0.01,0.03,0.02,-0.05,0.02,249
0.96,0.01,0.03,0.02,-0.04,-0.02,249
0.96,0.01,0.03,0.03,0.03,-0.02,249
0.96,0.01,0.03,0.00,0.03,0.01,249
0.96,0.01,0.03,-0.02,-0.01,-0.03,249
0.96,0.01,0.03,0.01,-0.01,-0.03,249
0.96,0.01,0.03,0.02,-0.01,-0.01,249
0.96,0.01,0.03,0.02,0.00,0.02,249
0.96,0.01,0.03,0.01,-0.02,-0.00,249
0.96,0.01,0.03,-0.01,-0.01,0.00,249
0.96,0.01,0.03,0.00,0.05,0.01,249
0.96,0.01,0.03,0.00,0.04,-0.01,249
0.96,0.01,0.03,-0.01,-0.02,0.02,249
0.96,0.01,0.03,0.03,-0.02,-0.01,249
0.96,0.01,0.03,0.04,0.01,0.01,249
0.96,0.01,0.03,0.01,0.00,0.02,249
0.96,0.01,0.03,-0.03,-0.02,-0.01,249
0.96,0.01,0.03,-0.05,-0.05,0.02,249
0.96,0.01,0.03,-0.05,-0.01,0.04,249
0.96,0.01,0.03,0.01,0.01,0.04,249
0.96,0.01,0.03,0.07,-0.02,0.01,249
0.96,0.01,0.03,0.03,0.01,-0.03,249
0.96,0.01,0.03,0.00,-0.01,-0.02,249
0.96,0.01,0.03,0.03,0.02,-0.01,249
0.96,0.01,0.03,-0.00,0.02,-0.02,249
0.96,0.01,0.03,-0.02,0.01,0.02,249
0.96,0.01,0.03,0.02,0.02,0.00,249
0.96,0.01,0.03,0.01,-0.01,-0.04,249
0.96,0.01,0.03,-0.01,0.02,-0.01,249
0.96,0.01,0.03,-0.01,-0.00,0.01,249
0.96,0.01,0.03,-0.05,-0.02,0.00,249
0.96,0.01,0.03,-0.03,0.00,0.04,249
0.96,0.01,0.03,0.03,-0.00,0.05,249
0.96,0.01,0.03,0.03,-0.03,0.02,249
0.96,0.01,0.03,-0.00,-0.04,0.03,249
0.96,0.01,0.03,-0.01,-0.02,0.03,249
0.96,0.01,0.03,-0.00,-0.02,0.03,249
0.96,0.01,0.03,0.00,0.01,-0.00,249
0.96,0.01,0.03,0.02,0.01,-0.03,249
0.96,0.01,0.03,0.07,-0.01,0.00,249
0.96,0.01,0.03,0.05,-0.02,-0.00,249
0.96,0.01,0.03,0.02,-0.04,0.00,249
0.96,0.01,0.03,-0.01,-0.03,0.03,249
0.96,0.01,0.03,-0.01,0.00,0.00,249
0.96,0.01,0.03,0.01,0.02,-0.02,249
0.96,0.01,0.03,-0.00,0.02,-0.04,249
0.96,0.01,0.03,-0.01,0.02,-0.04,249
0.96,0.01,0.03,-0.02,0.00,-0.01,249
0.96,0.01,0.03,-0.02,-0.03,-0.02,249
0.96,0.01,0.03,0.00,-0.02,-0.01,249
0.96,0.01,0.03,0.01,0.02,0.03,249
0.96,0.01,0.03,-0.01,0.01,0.00,249
0.96,0.01,0.03,-0.01,0.01,-0.01,249
0.96,0.01,0.03,0.03,0.01,0.04,249
0.96,0.01,0.03,0.03,0.00,0.00,249
0.96,0.01,0.03,0.01,-0.02,-0.02,249
0.96,0.01,0.03,-0.00,-0.05,0.02,249
0.96,0.01,0.03,-0.01,-0.02,-0.04,249
0.96,0.01,0.03,-0.01,0.00,-0.04,249
0.96,0.01,0.03,-0.01,-0.01,-0.03,249
0.96,0.01,0.03,0.02,0.01,-0.05,249
0.96,0.01,0.03,-0.01,0.03,-0.02,249
0.96,0.01,0.03,-0.01,0.03,0.00,249
0.96,0.01,0.03,-0.00,0.00,0.03,249
0.96,0.01,0.03,-0.05,-0.04,0.01,249
0.96,0.01,0.03,-0.05,-0.03,-0.01,249
0.96,0.01,0.03,-0.01,-0.00,0.02,249
0.96,0.01,0.03,0.03,0.03,0.04,249
0.96,0.01,0.03,0.04,0.01,0.06,249
0.96,0.01,0.03,0.02,-0.01,0.02,249
0.96,0.01,0.03,0.01,0.01,-0.01,249
0.96,0.01,0.03,-0.03,0.01,0.00,249
0.96,0.01,0.03,-0.04,0.02,0.00,249
0.96,0.01,0.03,0.00,0.03,0.01,249
0.96,0.01,0.03,0.01,0.03,-0.00,249
0.96,0.01,0.03,-0.01,-0.01,-0.03,249
0.96,0.01,0.03,0.02,-0.02,-0.01,249
0.96,0.01,0.03,-0.01,0.01,-0.03,249
0.96,0.01,0.03,-0.03,0.01,-0.01,249
0.96,0.01,0.03,0.01,0.03,0.02,249
0.96,0.01,0.03,0.02,0.03,0.00,249
0.96,0.01,0.03,-0.03,0.01,-0.01,249
0.96,0.01,0.03,-0.07,-0.01,-0.03,249
0.96,0.01,0.03,-0.05,-0.02,-0.08,249
0.96,0.01,0.03,-0.02,-0.00,-0.06,249
0.96,0.01,0.03,0.01,-0.01,-0.01,249
0.96,0.01,0.03,0.00,-0.04,-0.02,249
0.96,0.01,0.03,-0.01,-0.03,-0.01,249
0.96,0.01,0.03,-0.01,-0.04,-0.03,249
0.96,0.01,0.03,-0.00,-0.01,-0.03,249
0.96,0.01,0.03,0.02,0.05,0.04,249
0.96,0.01,0.03,0.02,0.01,0.03,249
0.96,0.01,0.03,-0.02,-0.04,-0.03,249
0.96,0.01,0.03,-0.02,-0.00,-0.00,249
0.96,0.01,0.03,-0.01,-0.02,0.04,249
0.96,0.01,0.03,-0.01,-0.05,0.06,249
0.96,0.01,0.03,0.00,-0.02,0.04,249
0.96,0.01,0.03,0.00,-0.00,0.01,249
0.96,0.01,0.03,0.01,-0.01,0.04,249
0.96,0.01,0.03,-0.02,0.00,0.03,249
0.96,0.01,0.03,0.00,0.02,0.05,249
0.96,0.01,0.03,0.04,-0.02,0.06,249
0.96,0.01,0.03,0.02,-0.04,0.02,249
0.96,0.01,0.03,0.00,0.01,0.02,249
0.96,0.01,0.03,-0.03,0.01,-0.01,249
0.96,0.01,0.03,0.01,-0.03,-0.02,249
0.96,0.01,0.03,0.02,-0.01,0.04,249
0.96,0.01,0.03,0.01,-0.01,0.05,249
0.96,0.01,0.03,-0.02,-0.02,0.00,249
0.96,0.01,0.03,-0.01,-0.01,-0.06,249
0.96,0.01,0.03,0.06,-0.01,-0.01,249
0.96,0.01,0.03,0.04,0.00,0.03,249
0.96,0.01,0.03,-0.01,0.02,0.00,249
0.96,0.01,0.03,-0.00,0.02,0.00,249
0.96,0.01,0.03,0.02,0.02,-0.01,249
0.96,0.01,0.03,0.02,0.03,0.01,249
0.96,0.01,0.03,0.02,0.04,-0.01,249
0.96,0.01,0.03,-0.02,0.01,-0.04,249
0.96,0.01,0.03,-0.01,0.02,0.00,249
0.96,0.01,0.03,0.03,0.01,0.02,249
0.96,0.01,0.03,0.03,-0.01,0.00,249
0.96,0.01,0.03,0.01,0.01,-0.04,249
0.96,0.01,0.03,-0.00,-0.01,-0.04,249
0.96,0.01,0.03,-0.01,0.01,-0.02,249
0.96,0.01,0.03,-0.03,0.03,0.00,249
0.96,0.01,0.03,-0.02,-0.02,0.04,249
0.96,0.01,0.03,0.01,-0.01,-0.01,249
0.96,0.01,0.03,0.01,0.04,0.02,249
0.96,0.01,0.03,0.03,0.05,0.05,249
0.96,0.01,0.03,0.01,0.03,0.04,249
0.96,0.01,0.03,0.00,0.01,0.02,249
0.96,0.01,0.03,0.01,0.01,-0.00,249
0.96,0.01,0.03,0.00,0.02,0.02,249
0.96,0.01,0.03,0.02,-0.06,-0.01,249
0.96,0.01,0.03,0.02,-0.10,-0.01,249
0.96,0.01,0.03,0.00,-0.07,0.05,249
0.96,0.01,0.03,0.00,-0.01,0.04,249
0.96,0.01,0.03,-0.03,0.03,-0.00,249
0.96,0.01,0.03,-0.01,0.01,0.02,249
0.96,0.01,0.03,0.02,0.03,0.03,249
0.96,0.01,0.03,-0.01,0.01,0.01,249
0.96,0.01,0.03,0.00,0.01,0.02,249
0.96,0.01,0.03,0.03,0.03,0.02,249
0.96,0.01,0.03,0.04,0.01,-0.01,249
0.96,0.01,0.03,0.03,-0.03,-0.03,249
0.96,0.01,0.03,0.01,-0.01,-0.01,249
0.96,0.01,0.03,0.03,0.04,-0.02,249
0.96,0.01,0.03,0.04,0.03,-0.03,249
0.96,0.01,0.03,0.02,-0.02,-0.03,249
0.96,0.01,0.03,0.02,-0.04,-0.05,249
0.96,0.01,0.03,0.04,-0.01,-0.04,249
0.96,0.01,0.03,0.03,0.00,-0.03,249
0.96,0.01,0.03,-0.00,-0.02,0.02,249
0.96,0.01,0.03,0.00,0.01,0.04,249
0.96,0.01,0.03,0.02,0.04,0.02,249
0.96,0.01,0.03,-0.01,0.06,0.03,249
0.96,0.01,0.03,-0.05,-0.00,-0.03,249
0.96,0.01,0.03,-0.03,-0.06,-0.03,249
0.96,0.01,0.03,0.01,-0.01,-0.01,249
0.96,0.01,0.03,0.02,0.02,0.01,249
0.96,0.01,0.03,-0.03,-0.01,0.01,249
0.96,0.01,0.03,-0.04,-0.03,-0.03,249
0.96,0.01,0.03,-0.01,-0.04,-0.01,249
0.96,0.01,0.03,0.03,0.01,0.05,249
0.96,0.01,0.03,0.03,-0.02,0.05,249
0.96,0.01,0.03,0.02,-0.04,0.01,249
0.96,0.01,0.03,-0.01,0.02,0.05,249
0.96,0.01,0.03,-0.01,-0.02,0.02,249
0.96,0.01,0.03,0.00,-0.01,-0.01,249
0.96,0.01,0.03,-0.02,0.01,-0.02,249
0.96,0.01,0.03,-0.01,0.03,-0.02,249
0.96,0.01,0.03,-0.01,0.04,0.03,249
0.96,0.01,0.03,-0.02,0.01,0.01,249
0.96,0.01,0.03,-0.01,-0.01,0.02,249
0.96,0.01,0.03,-0.00,-0.02,0.04,249
0.96,0.01,0.03,-0.02,-0.02,-0.00,249
0.96,0.01,0.03,-0.05,0.00,0.00,249
0.96,0.01,0.03,-0.04,0.02,-0.01,249
0.96,0.01,0.03,-0.01,0.03,-0.05,249
0.96,0.01,0.03,-0.01,0.05,-0.03,249
0.96,0.01,0.03,0.00,0.03,-0.01,249
0.96,0.01,0.03,-0.01,-0.01,0.03,249
0.96,0.01,0.03,-0.05,-0.00,0.02,249
0.96,0.01,0.03,-0.04,0.02,-0.01,249
0.96,0.01,0.03,0.02,0.03,0.01,249
0.96,0.01,0.03,0.04,0.01,0.01,249
0.96,0.01,0.03,0.04,0.01,0.00,249
0.96,0.01,0.03,0.02,0.02,0.03,249
0.96,0.01,0.03,-0.00,0.02,0.04,249
0.96,0.01,0.03,0.00,-0.01,0.03,249
0.96,0.01,0.03,0.03,0.03,0.03,249
0.96,0.01,0.03,0.02,0.06,0.01,249
0.96,0.01,0.03,-0.03,0.02,0.00,249
0.96,0.01,0.03,-0.00,0.00,-0.02,249
0.96,0.01,0.03,0.01,0.07,-0.04,249
0.96,0.01,0.03,-0.03,0.05,-0.01,249
0.96,0.01,0.03,-0.03,-0.03,-0.03,249
0.96,0.01,0.03,0.02,-0.01,-0.01,249
0.96,0.01,0.03,0.02,0.02,0.04,249
0.96,0.01,0.03,-0.01,-0.01,0.02,249
0.96,0.01,0.03,-0.04,0.02,-0.02,249
0.96,0.01,0.03,-0.05,0.03,-0.03,249
0.96,0.01,0.03,-0.05,0.01,-0.00,249
0.96,0.01,0.03,0.00,0.03,-0.02,249
0.96,0.01,0.03,0.01,0.00,-0.05,249
0.96,0.01,0.03,-0.01,-0.01,-0.04,249
0.96,0.01,0.03,0.00,0.03,-0.01,249
0.96,0.01,0.03,-0.01,0.03,-0.01,249
0.96,0.01,0.03,-0.01,0.03,-0.00,249
0.96,0.01,0.03,-0.01,0.01,-0.04,249
0.96,0.01,0.03,0.00,-0.02,-0.07,249
0.96,0.01,0.03,-0.01,0.02,-0.04,249
0.96,0.01,0.03,-0.05,0.03,-0.03,249
0.96,0.01,0.03,-0.03,-0.02,-0.02,249
0.96,0.01,0.03,-0.02,-0.02,-0.02,249
0.96,0.01,0.03,-0.03,0.03,-0.02,249
0.96,0.01,0.03,-0.05,0.03,-0.02,249
0.96,0.01,0.03,-0.06,0.01,-0.01,249
0.96,0.01,0.03,-0.04,0.00,0.04,249
0.96,0.01,0.03,-0.00,-0.00,0.06,249
0.96,0.01,0.03,0.02,-0.04,0.02,249
0.96,0.01,0.03,-0.01,-0.01,-0.01,249
0.96,0.01,0.03,-0.02,-0.00,0.00,249
0.96,0.01,0.03,-0.03,-0.07,0.02,249
0.96,0.01,0.03,-0.02,-0.06,0.05,249
0.96,0.01,0.03,0.01,-0.02,0.05,249
0.96,0.01,0.03,0.03,-0.00,0.05,249
0.96,0.01,0.03,-0.01,0.00,0.03,249
0.96,0.01,0.03,-0.05,-0.03,0.00,249
0.96,0.01,0.03,-0.05,0.01,0.00,249
0.96,0.01,0.03,-0.05,0.04,-0.03,249
0.96,0.01,0.03,0.01,0.00,-0.05,249
0.96,0.01,0.03,-0.01,-0.01,0.01,250
0.96,0.01,0.03,-0.02,-0.02,0.04,249
0.96,0.01,0.03,0.02,-0.02,-0.01,249
0.96,0.01,0.03,0.01,0.00,0.02,249
0.96,0.01,0.03,-0.05,0.01,0.04,249
0.96,0.01,0.03,-0.03,0.03,-0.02,249
0.96,0.01,0.03,0.04,-0.00,-0.02,249
0.96,0.01,0.03,0.02,-0.04,0.00,249
0.96,0.01,0.03,-0.01,-0.02,-0.02,249
0.96,0.01,0.03,-0.01,-0.02,-0.02,249
0.96,0.01,0.03,0.02,-0.02,-0.02,249
0.96,0.01,0.03,0.03,-0.02,-0.04,249
0.96,0.01,0.03,-0.01,-0.00,-0.01,249
0.96,0.01,0.03,-0.02,0.02,0.02,249
0.96,0.01,0.03,-0.01,0.03,0.02,249
0.96,0.01,0.03,0.00,0.02,-0.01,249
0.96,0.01,0.03,0.02,-0.01,-0.00,249
0.96,0.01,0.03,0.02,-0.01,0.02,249
0.96,0.01,0.03,-0.01,0.01,0.02,249
0.96,0.01,0.03,-0.03,-0.01,0.03,249
0.96,0.01,0.03,-0.04,-0.03,0.01,249
0.96,0.01,0.03,-0.07,-0.02,-0.01,249
0.96,0.01,0.03,-0.02,-0.02,0.04,249
0.96,0.01,0.03,-0.02,0.01,0.05,249
0.96,0.01,0.03,-0.05,-0.00,0.08,249
0.96,0.01,0.03,0.00,-0.01,0.06,249
0.96,0.01,0.03,0.04,-0.02,0.02,249
0.96,0.01,0.03,0.03,-0.04,0.02,249
0.96,0.01,0.03,0.00,-0.00,0.02,249
0.96,0.01,0.03,-0.02,0.04,0.04,249
0.96,0.01,0.03,0.02,0.03,0.03,249
0.96,0.01,0.03,0.02,-0.02,-0.05,249
0.96,0.01,0.03,-0.03,-0.01,-0.06,249
0.96,0.01,0.03,-0.03,0.03,-0.01,249
0.96,0.01,0.03,-0.01,0.03,-0.03,249
0.96,0.01,0.03,-0.01,-0.01,-0.01,249
0.96,0.01,0.03,-0.04,0.00,0.02,249
0.96,0.01,0.03,0.00,-0.02,-0.06,249
0.96,0.01,0.03,0.07,0.01,-0.06,249
0.96,0.01,0.03,0.04,0.06,-0.02,249
0.96,0.01,0.03,-0.03,0.03,-0.02,249
0.96,0.01,0.03,-0.01,0.01,-0.01,249
0.96,0.01,0.03,-0.01,0.00,-0.04,249
0.96,0.01,0.03,0.00,0.00,-0.04,249
0.96,0.01,0.03,0.02,-0.02,-0.04,249
0.96,0.01,0.03,-0.02,-0.02,-0.01,249
0.96,0.01,0.03,0.00,-0.02,0.02,249
0.96,0.01,0.03,0.01,-0.03,0.01,249
0.96,0.01,0.03,-0.01,-0.00,0.00,249
0.96,0.01,0.03,0.01,0.03,0.02,249
0.96,0.01,0.03,0.02,0.02,0.03,249
0.96,0.01,0.03,-0.02,-0.01,0.02,249
0.96,0.01,0.03,-0.02,-0.02,0.01,249
0.96,0.01,0.03,0.02,-0.01,0.00,249
0.96,0.01,0.03,0.02,0.01,0.00,249
0.96,0.01,0.03,0.01,-0.01,0.01,249
0.96,0.01,0.03,-0.00,-0.00,-0.01,249
0.96,0.01,0.03,0.00,0.01,-0.01,249
0.96,0.01,0.03,0.00,0.03,-0.00,249
0.96,0.01,0.03,-0.01,0.03,0.01,249
0.96,0.01,0.03,-0.01,-0.00,0.05,249
0.96,0.01,0.03,0.00,-0.03,0.01,249
0.96,0.01,0.03,0.03,-0.01,-0.01,249
0.96,0.01,0.03,0.04,0.02,0.02,249
0.96,0.01,0.03,-0.02,0.06,-0.01,249
0.96,0.01,0.03,-0.02,0.07,-0.03,249
0.96,0.01,0.03,-0.01,-0.01,-0.03,249
0.96,0.01,0.03,-0.04,-0.02,-0.04,249
0.96,0.01,0.03,-0.06,0.02,-0.03,249
0.96,0.01,0.03,-0.05,-0.01,-0.02,249
0.96,0.01,0.03,-0.02,-0.01,-0.03,250
0.96,0.01,0.03,-0.03,0.03,-0.03,249
0.96,0.01,0.03,-0.03,0.02,-0.03,249
0.96,0.01,0.03,-0.02,-0.00,-0.04,249
0.96,0.01,0.03,0.01,0.01,-0.03,249
0.96,0.01,0.03,0.02,0.02,-0.01,249
0.96,0.01,0.03,-0.03,0.01,-0.01,249
0.96,0.01,0.03,-0.03,0.03,0.01,249
0.96,0.01,0.03,0.04,0.06,0.00,249
0.96,0.01,0.03,0.01,0.04,-0.01,249
0.96,0.01,0.03,-0.03,-0.01,-0.04,249
0.96,0.01,0.03,-0.02,-0.01,-0.03,249
0.96,0.01,0.03,0.00,0.01,0.01,249
0.96,0.01,0.03,-0.01,0.01,0.02,249
0.96,0.01,0.03,0.00,-0.01,0.02,249
0.96,0.01,0.03,0.02,-0.03,0.03,249
0.96,0.01,0.03,0.00,-0.06,0.03,249
0.96,0.01,0.03,-0.00,-0.05,0.05,249
0.96,0.01,0.03,0.00,-0.02,0.05,249
0.96,0.01,0.03,0.02,0.01,0.00,249
0.96,0.01,0.03,0.02,0.02,-0.00,249
0.96,0.01,0.03,0.00,0.03,0.00,249
0.96,0.01,0.03,-0.03,0.02,0.02,249
0.96,0.01,0.03,-0.02,-0.02,0.00,249
0.96,0.01,0.03,-0.01,0.01,0.00,249
0.96,0.01,0.03,-0.01,0.03,0.01,249
0.96,0.01,0.03,0.01,0.00,-0.03,249
0.96,0.01,0.03,-0.01,0.03,-0.04,249
0.96,0.01,0.03,-0.04,-0.01,-0.03,249
0.96,0.01,0.03,-0.05,-0.01,-0.00,249
0.96,0.01,0.03,-0.04,0.03,0.02,249
0.96,0.01,0.03,-0.00,0.01,0.00,249
0.96,0.01,0.03,0.02,0.03,-0.02,249
0.96,0.01,0.03,0.00,0.03,-0.01,249
0.96,0.01,0.03,-0.01,0.00,-0.00,249
0.96,0.01,0.03,0.01,-0.01,0.01,249
0.96,0.01,0.03,0.02,0.03,-0.03,249
0.96,0.01,0.03,0.03,0.05,-0.03,249
0.96,0.01,0.03,0.00,0.02,-0.01,249
0.96,0.01,0.03,0.00,0.01,-0.01,249
0.96,0.01,0.03,-0.01,-0.02,-0.02,249
0.96,0.01,0.03,0.00,-0.02,-0.04,249
0.96,0.01,0.03,0.02,-0.01,0.01,249
0.96,0.01,0.03,0.01,0.01,0.03,249
0.96,0.01,0.03,0.00,0.02,0.04,249
0.96,0.01,0.03,-0.01,-0.01,0.04,249
0.96,0.01,0.03,-0.03,-0.01,-0.03,249
0.96,0.01,0.03,-0.02,-0.01,-0.03,249
0.96,0.01,0.03,-0.01,-0.01,0.00,249
0.96,0.01,0.03,-0.00,-0.01,0.06,249
0.96,0.01,0.03,0.01,0.01,0.03,249
0.96,0.01,0.03,-0.01,0.02,0.00,249
0.96,0.01,0.03,-0.01,0.03,0.05,249
0.96,0.01,0.03,-0.01,0.02,0.01,249
0.96,0.01,0.03,0.01,0.02,-0.03,249
0.96,0.01,0.03,0.01,0.02,-0.01,249
0.96,0.01,0.03,0.00,-0.01,-0.04,249
0.96,0.01,0.03,0.02,0.04,-0.02,249
0.96,0.01,0.03,-0.02,0.02,0.02,249
0.96,0.01,0.03,-0.02,-0.04,0.00,249
0.96,0.01,0.03,0.00,0.00,-0.01,249
0.96,0.01,0.03,-0.01,0.02,-0.01,249
0.96,0.01,0.03,-0.01,0.02,-0.03,249
0.96,0.01,0.03,-0.00,0.02,-0.03,249
0.96,0.01,0.03,0.00,0.02,0.00,249
0.96,0.01,0.03,0.01,0.04,-0.01,249
0.96,0.01,0.03,-0.03,0.04,-0.01,249
0.96,0.01,0.03,-0.03,0.02,-0.01,249
0.96,0.01,0.03,0.01,-0.01,-0.01,249
0.96,0.01,0.03,0.02,0.01,-0.00,249
0.96,0.01,0.03,-0.00,-0.00,0.01,249
0.96,0.01,0.03,-0.05,-0.00,0.02,249
0.96,0.01,0.03,-0.03,0.04,0.03,249
0.96,0.01,0.03,0.03,0.02,0.05,249
0.96,0.01,0.03,-0.01,-0.02,0.03,249
0.96,0.01,0.03,-0.03,-0.04,0.02,249
0.96,0.01,0.03,0.00,-0.03,0.04,249
0.96,0.01,0.03,0.01,-0.00,0.05,249
0.96,0.01,0.03,0.02,-0.02,0.05,249
0.96,0.01,0.03,-0.00,-0.00,0.04,249
0.96,0.01,0.03,0.00,0.01,0.02,249
0.96,0.01,0.03,-0.01,0.02,-0.02,249
0.96,0.01,0.03,-0.03,-0.02,0.00,249
0.96,0.01,0.03,-0.01,-0.04,-0.01,249
0.96,0.01,0.03,-0.01,-0.02,-0.04,249
0.96,0.01,0.03,0.00,-0.02,0.03,249
0.96,0.01,0.03,-0.03,-0.00,0.04,249
0.96,0.01,0.03,-0.06,-0.01,0.01,249
0.96,0.01,0.03,0.00,0.01,0.00,249
0.96,0.01,0.03,0.01,0.01,-0.00,249
0.96,0.01,0.03,-0.02,-0.01,-0.01,249
0.96,0.01,0.03,0.02,-0.03,-0.01,249
0.96,0.01,0.03,-0.02,-0.04,-0.03,249
0.96,0.01,0.03,-0.03,0.02,-0.01,249
0.96,0.01,0.03,-0.03,0.02,0.02,249
0.96,0.01,0.03,-0.05,0.01,-0.06,249
0.96,0.01,0.03,-0.05,0.00,-0.04,249
0.96,0.01,0.03,-0.06,-0.01,0.04,249
0.96,0.01,0.03,-0.03,0.02,0.00,249
0.96,0.01,0.03,-0.02,0.00,-0.01,249
0.96,0.01,0.03,-0.01,-0.03,-0.00,249
0.96,0.01,0.03,0.01,-0.02,-0.01,249
0.96,0.01,0.03,0.02,-0.02,-0.02,249
0.96,0.01,0.03,0.02,-0.04,-0.01,249
0.96,0.01,0.03,-0.02,-0.00,0.01,249
0.96,0.01,0.03,-0.02,0.02,0.04,249
0.96,0.01,0.03,0.01,-0.01,0.00,249
0.96,0.01,0.03,0.02,-0.02,-0.02,249
0.96,0.01,0.03,-0.03,-0.01,0.03,249
0.96,0.01,0.03,-0.03,0.02,0.05,249
0.96,0.01,0.03,0.00,0.02,0.05,249
0.96,0.01,0.03,-0.01,0.01,0.00,249
0.96,0.01,0.03,-0.01,-0.01,0.00,249
0.96,0.01,0.03,-0.02,-0.02,0.05,249
0.96,0.01,0.03,0.01,0.00,0.01,249
0.96,0.01,0.03,-0.01,0.00,-0.00,249
0.96,0.01,0.03,-0.04,-0.01,0.01,249
0.96,0.01,0.03,0.01,0.01,-0.05,249
0.96,0.01,0.03,0.01,0.00,-0.04,249
0.96,0.01,0.03,-0.01,0.01,-0.01,249
0.96,0.01,0.03,0.04,0.02,0.00,249
0.96,0.01,0.03,0.04,0.01,-0.03,249
0.96,0.01,0.03,0.01,-0.00,-0.06,249
0.96,0.01,0.03,-0.01,-0.01,-0.02,249
0.96,0.01,0.03,-0.03,-0.00,-0.00,249
0.96,0.01,0.03,-0.00,-0.00,-0.00,249
0.96,0.01,0.03,-0.00,0.01,-0.04,249
0.96,0.01,0.03,0.01,0.00,-0.06,249
0.96,0.01,0.03,0.00,-0.02,-0.01,249
0.96,0.01,0.03,-0.02,-0.02,0.01,249
0.96,0.01,0.03,-0.01,-0.01,-0.02,249
0.96,0.01,0.03,-0.00,0.02,0.02,249
0.96,0.01,0.03,0.00,0.02,0.04,249
0.96,0.01,0.03,0.00,0.01,0.04,249
0.96,0.01,0.03,-0.01,0.02,0.06,249
0.96,0.01,0.03,0.01,-0.01,0.06,249
0.96,0.01,0.03,0.02,-0.01,0.03,249
0.96,0.01,0.03,0.01,0.00,0.04,249
0.96,0.01,0.03,0.01,0.00,0.04,250
0.96,0.01,0.03,0.01,0.01,0.05,249
0.96,0.01,0.03,-0.01,-0.00,0.06,249
0.96,0.01,0.03,0.01,0.01,-0.01,249
0.96,0.01,0.03,0.09,0.04,-0.01,249
0.96,0.01,0.03,0.07,-0.00,-0.00,249
0.96,0.01,0.03,-0.02,-0.05,0.03,249
0.96,0.01,0.03,-0.03,0.01,0.07,249
0.96,0.01,0.03,-0.01,0.05,0.08,249
0.96,0.01,0.03,0.00,0.00,0.05,249
0.96,0.01,0.03,0.01,0.00,0.03,250
0.96,0.01,0.03,-0.01,0.04,0.05,249
0.96,0.01,0.03,-0.01,0.02,-0.02,249
0.96,0.01,0.03,-0.01,0.03,-0.08,249
0.96,0.01,0.03,0.00,0.02,-0.06,249
0.96,0.01,0.03,-0.04,0.01,-0.04,249
0.96,0.01,0.03,-0.05,-0.01,0.01,249
0.96,0.01,0.03,-0.01,-0.03,-0.03,249
0.96,0.01,0.03,-0.01,-0.02,-0.08,249
0.96,0.01,0.03,0.01,-0.01,-0.05,249
0.96,0.01,0.03,0.00,-0.02,-0.05,249
0.96,0.01,0.03,-0.02,-0.01,-0.04,249
0.96,0.01,0.03,-0.02,0.02,0.00,249
0.96,0.01,0.03,0.01,0.01,0.01,249
0.96,0.01,0.03,-0.01,0.01,-0.02,249
0.96,0.01,0.03,-0.02,0.02,-0.03,249
0.96,0.01,0.03,0.01,0.01,0.02,249
0.96,0.01,0.03,-0.03,0.01,0.03,249
0.96,0.01,0.03,-0.01,0.00,0.00,249
0.96,0.01,0.03,-0.01,-0.00,0.02,249
0.96,0.01,0.03,-0.04,-0.01,0.00,249
0.96,0.01,0.03,0.03,-0.00,-0.00,249
0.96,0.01,0.03,0.03,0.05,0.04,249
0.96,0.01,0.03,-0.01,0.03,0.01,249
0.96,0.01,0.03,0.01,-0.03,0.01,249
0.96,0.01,0.03,-0.03,0.01,0.03,249
0.96,0.01,0.03,-0.04,-0.02,-0.01,249
0.96,0.01,0.03,-0.00,-0.04,0.04,249
0.96,0.01,0.03,0.02,-0.00,0.05,249
0.96,0.01,0.03,0.01,-0.02,0.00,249
0.96,0.01,0.03,0.01,0.01,0.01,249
0.96,0.01,0.03,0.04,0.01,0.04,249
0.96,0.01,0.03,0.02,-0.02,0.02,249
0.96,0.01,0.03,-0.00,-0.01,0.00,249
0.96,0.01,0.03,-0.00,-0.04,0.03,249
0.96,0.01,0.03,-0.00,-0.05,0.02,249
0.96,0.01,0.03,-0.03,-0.02,-0.01,249
0.96,0.01,0.03,0.01,-0.01,-0.02,249
0.96,0.01,0.03,0.01,-0.01,0.01,250
0.96,0.01,0.03,-0.02,0.02,0.02,249
0.96,0.01,0.03,0.01,0.02,-0.00,249
0.96,0.01,0.03,-0.00,0.02,-0.05,249
0.96,0.01,0.03,0.01,-0.01,-0.06,249
0.96,0.01,0.03,0.01,-0.07,-0.01,249
0.96,0.01,0.03,-0.04,-0.04,-0.00,249
0.96,0.01,0.03,-0.04,0.01,-0.01,249
0.96,0.01,0.03,0.00,0.01,-0.01,250
0.96,0.01,0.03,0.01,-0.01,-0.02,249
0.96,0.01,0.03,-0.02,0.02,-0.04,249
0.96,0.01,0.03,-0.02,0.03,-0.02,249
0.96,0.01,0.03,0.03,0.01,0.02,249
0.96,0.01,0.03,0.04,-0.01,-0.04,249
0.96,0.01,0.03,0.04,-0.03,-0.06,249
0.96,0.01,0.03,0.05,0.00,-0.03,249
0.96,0.01,0.03,0.03,0.02,-0.02,249
0.96,0.01,0.03,0.03,0.01,0.03,249
0.96,0.01,0.03,0.02,0.01,0.07,249
0.96,0.01,0.03,-0.03,0.01,0.06,249
0.96,0.01,0.03,-0.00,-0.01,0.02,249
0.96,0.01,0.03,0.04,-0.01,0.02,249
0.96,0.01,0.03,0.02,-0.01,-0.01,249
0.96,0.01,0.03,0.01,-0.02,-0.01,249
0.96,0.01,0.03,-0.01,-0.04,-0.02,249
0.96,0.01,0.03,-0.02,-0.04,-0.01,249
0.96,0.01,0.03,0.01,0.02,0.01,249
0.96,0.01,0.03,-0.02,0.03,0.00,249
0.96,0.01,0.03,-0.04,-0.01,0.01,249
0.96,0.01,0.03,-0.01,-0.02,0.02,249
0.96,0.01,0.03,-0.00,0.01,0.03,249
0.96,0.01,0.03,-0.00,-0.01,0.01,249
0.96,0.01,0.03,0.00,-0.04,0.00,249
0.96,0.01,0.03,-0.00,0.01,0.04,249
0.96,0.01,0.03,0.01,0.00,-0.02,249
0.96,0.01,0.03,-0.00,-0.01,-0.05,249
0.96,0.01,0.03,0.01,-0.02,-0.02,249
0.96,0.01,0.03,0.02,-0.01,0.01,249
0.96,0.01,0.03,0.02,-0.02,0.04,249
0.96,0.01,0.03,-0.00,-0.04,-0.01,249
0.96,0.01,0.03,-0.01,-0.03,-0.05,249
0.96,0.01,0.03,0.02,0.00,-0.04,249
0.96,0.01,0.03,0.04,0.02,0.03,249
0.96,0.01,0.03,0.01,0.02,0.01,249
0.96,0.01,0.03,-0.00,0.02,-0.00,249
0.96,0.01,0.03,0.02,-0.04,0.03,249
0.96,0.01,0.03,0.01,-0.07,0.00,249
0.96,0.01,0.03,-0.01,-0.05,-0.02,249
0.96,0.01,0.03,-0.03,-0.04,-0.02,249
0.96,0.01,0.03,0.00,0.02,0.02,249
0.96,0.01,0.03,0.04,0.03,0.01,250
0.96,0.01,0.03,0.04,0.01,-0.02,249
0.96,0.01,0.03,0.02,0.01,-0.03,249
0.96,0.01,0.03,0.03,-0.01,-0.02,249
0.96,0.01,0.03,0.03,-0.01,0.00,249
0.96,0.01,0.03,0.01,0.01,-0.01,249
0.96,0.01,0.03,0.01,0.02,-0.02,249
0.96,0.01,0.03,0.01,0.02,-0.03,249
0.96,0.01,0.03,-0.02,0.01,0.00,249
0.96,0.01,0.03,-0.02,-0.01,0.07,249
0.96,0.01,0.03,0.02,-0.04,0.05,249
0.96,0.01,0.03,0.01,-0.03,0.00,249
0.96,0.01,0.03,-0.01,0.01,-0.02,249
0.96,0.01,0.03,0.01,-0.01,-0.01,249
0.96,0.01,0.03,0.01,-0.01,0.03,249
0.96,0.01,0.03,0.01,0.00,0.02,249
0.96,0.01,0.03,-0.01,-0.02,-0.00,249
0.96,0.01,0.03,-0.00,-0.04,0.03,249
0.96,0.01,0.03,-0.02,0.00,0.03,249
0.96,0.01,0.03,-0.05,0.03,-0.00,249
0.96,0.01,0.03,-0.02,0.01,0.00,249
0.96,0.01,0.03,-0.01,-0.00,-0.03,249
0.96,0.01,0.03,-0.01,-0.03,-0.05,249
0.96,0.01,0.03,-0.01,-0.05,-0.06,249
0.96,0.01,0.03,0.00,-0.04,-0.02,249
0.96,0.01,0.03,0.00,-0.05,-0.05,249
0.96,0.01,0.03,-0.02,-0.02,-0.06,249
0.96,0.01,0.03,0.00,0.01,-0.01,249
0.96,0.01,0.03,0.00,-0.03,0.03,249
0.96,0.01,0.03,-0.03,-0.02,0.04,249
0.96,0.01,0.03,0.01,-0.01,0.00,249
0.96,0.01,0.03,0.03,-0.01,-0.03,249
0.96,0.01,0.03,-0.02,0.01,-0.05,249
0.96,0.01,0.03,-0.01,0.01,-0.08,249
0.96,0.01,0.03,0.02,-0.01,-0.04,249
0.96,0.01,0.03,-0.01,-0.02,-0.01,249
0.96,0.01,0.03,-0.05,-0.01,-0.03,249
0.96,0.01,0.03,-0.05,0.01,0.00,249
0.96,0.01,0.03,0.01,0.03,-0.01,249
0.96,0.01,0.03,-0.01,-0.01,-0.06,249
0.96,0.01,0.03,-0.04,-0.02,-0.05,249
0.96,0.01,0.03,0.02,-0.00,-0.04,249
0.96,0.01,0.03,0.02,0.05,-0.03,249
0.96,0.01,0.03,0.00,0.08,-0.03,249
0.96,0.01,0.03,0.02,0.00,-0.04,249
0.96,0.01,0.03,0.01,-0.04,-0.03,249
0.96,0.01,0.03,0.01,-0.02,0.01,249
0.96,0.01,0.03,0.02,0.02,0.02,249
0.96,0.01,0.03,0.01,0.02,-0.01,249
0.96,0.01,0.03,-0.02,0.01,0.01,249
0.96,0.01,0.03,0.02,0.01,0.02,249
0.96,0.01,0.03,0.02,-0.03,0.02,249
0.96,0.01,0.03,-0.02,-0.03,0.07,249
0.96,0.01,0.03,0.00,0.03,0.08,249
0.96,0.01,0.03,0.02,0.03,0.07,249
0.96,0.01,0.03,0.03,-0.01,0.07,249
0.96,0.01,0.03,0.04,-0.01,0.02,249
0.96,0.01,0.03,0.02,0.01,0.02,249
0.96,0.01,0.03,0.00,0.01,0.04,249
0.96,0.01,0.03,0.01,0.00,-0.00,249
0.96,0.01,0.03,0.00,-0.02,-0.00,250
0.96,0.01,0.03,-0.01,-0.02,0.00,249
0.96,0.01,0.03,0.00,-0.05,-0.02,249
0.96,0.01,0.03,0.02,-0.02,-0.04,249
0.96,0.01,0.03,0.02,0.00,-0.05,249
0.96,0.01,0.03,0.01,-0.01,-0.06,249
0.96,0.01,0.03,0.02,-0.02,-0.08,249
0.96,0.01,0.03,0.04,-0.04,-0.06,249
0.96,0.01,0.03,0.02,-0.04,-0.03,249
0.96,0.01,0.03,-0.02,-0.02,-0.04,249
0.96,0.01,0.03,-0.03,-0.00,-0.08,249
0.96,0.01,0.03,-0.01,-0.02,-0.09,249
0.96,0.01,0.03,-0.00,-0.01,-0.01,249
0.96,0.01,0.03,0.01,0.01,0.02,249
0.96,0.01,0.03,0.00,0.01,-0.02,249
0.96,0.01,0.03,-0.00,0.03,-0.03,249
0.96,0.01,0.03,0.01,0.03,-0.02,249
0.96,0.01,0.03,0.02,0.03,-0.00,249
0.96,0.01,0.03,0.01,0.01,0.00,249
0.96,0.01,0.03,-0.03,0.02,-0.00,249
0.96,0.01,0.03,-0.03,0.03,0.02,249
0.96,0.01,0.03,0.02,-0.02,0.04,249
0.96,0.01,0.03,0.04,-0.02,0.03,249
0.96,0.01,0.03,0.01,0.03,0.05,249
0.96,0.01,0.03,0.01,0.02,0.05,249
0.96,0.01,0.03,0.02,0.00,0.04,249
0.96,0.01,0.03,0.02,-0.01,0.02,249
0.96,0.01,0.03,0.02,0.01,0.03,249
0.96,0.01,0.03,0.04,0.03,0.02,249
0.96,0.01,0.03,0.06,-0.01,0.02,249
0.96,0.01,0.03,0.04,-0.03,0.03,249
0.96,0.01,0.03,0.00,-0.01,-0.01,249
0.96,0.01,0.03,-0.04,-0.03,-0.02,249
0.96,0.01,0.03,-0.03,-0.01,-0.02,249
0.96,0.01,0.03,-0.01,-0.02,-0.06,249
0.96,0.01,0.03,0.01,-0.04,-0.05,249
0.96,0.01,0.03,0.04,-0.02,-0.06,249
0.96,0.01,0.03,0.03,-0.02,-0.08,249
0.96,0.01,0.03,-0.01,0.03,-0.04,249
0.96,0.01,0.03,-0.02,0.02,-0.05,249
0.96,0.01,0.03,0.00,-0.02,-0.05,249
0.96,0.01,0.03,0.02,-0.01,-0.03,249
0.96,0.01,0.03,-0.01,-0.02,-0.02,249
0.96,0.01,0.03,-0.03,-0.01,0.02,249
0.96,0.01,0.03,0.01,0.02,-0.03,249
0.96,0.01,0.03,0.00,0.03,-0.08,249
0.96,0.01,0.03,0.02,0.02,-0.04,249
0.96,0.01,0.03,0.04,0.02,-0.01,249
0.96,0.01,0.03,0.02,0.01,-0.03,249
0.96,0.01,0.03,0.02,0.01,-0.03,249
0.96,0.01,0.03,0.03,0.02,0.01,249
0.96,0.01,0.03,0.01,0.03,-0.01,249
0.96,0.01,0.03,-0.01,0.03,0.01,249
0.96,0.01,0.03,0.02,0.02,0.02,249
0.96,0.01,0.03,0.02,-0.02,0.01,249
0.96,0.01,0.03,0.00,-0.03,0.04,249
0.96,0.01,0.03,-0.03,-0.00,0.05,249
0.96,0.01,0.03,-0.04,0.01,0.05,249
0.96,0.01,0.03,-0.03,0.01,0.04,249
0.96,0.01,0.03,0.03,0.01,0.02,249
0.96,0.01,0.03,0.05,0.03,0.05,249
0.96,0.01,0.03,0.01,0.06,0.06,249
0.96,0.01,0.03,0.01,0.03,0.04,249
0.96,0.01,0.03,0.00,-0.01,0.00,249
0.96,0.01,0.03,-0.01,-0.02,-0.00,249
0.96,0.01,0.03,0.03,0.00,-0.04,249
0.96,0.01,0.03,0.01,0.02,-0.07,249
0.96,0.01,0.03,-0.04,0.01,-0.03,249
0.96,0.01,0.03,0.00,0.04,-0.02,249
0.96,0.01,0.03,0.02,0.03,-0.02,249
0.96,0.01,0.03,0.00,-0.00,-0.01,249
0.96,0.01,0.03,0.02,0.01,-0.04,249
0.96,0.01,0.03,0.02,0.01,-0.04,249
0.96,0.01,0.03,0.02,-0.01,-0.05,249
0.96,0.01,0.03,0.01,-0.01,-0.03,249
0.96,0.01,0.03,-0.01,0.00,0.01,249
0.96,0.01,0.03,-0.01,0.03,-0.01,249
0.96,0.01,0.03,-0.00,0.03,-0.05,249
0.96,0.01,0.03,-0.02,0.03,-0.08,249
0.96,0.01,0.03,-0.02,0.02,-0.04,249
0.96,0.01,0.03,-0.01,0.00,0.00,249
0.96,0.01,0.03,-0.01,-0.04,0.01,249
0.96,0.01,0.03,-0.03,-0.02,-0.03,249
0.96,0.01,0.03,-0.03,-0.00,0.02,249
0.96,0.01,0.03,0.01,-0.01,0.04,249
0.96,0.01,0.03,0.02,-0.01,0.02,249
0.96,0.01,0.03,-0.01,-0.01,0.03,249
0.96,0.01,0.03,-0.04,-0.02,-0.03,249
0.96,0.01,0.03,-0.04,-0.02,-0.04,249
0.96,0.01,0.03,-0.00,-0.01,0.02,249
0.96,0.01,0.03,0.04,0.01,0.03,249
0.96,0.01,0.03,0.02,0.03,0.04,249
0.96,0.01,0.03,0.02,0.01,0.02,249
0.96,0.01,0.03,0.04,0.03,0.03,249
0.96,0.01,0.03,0.05,-0.01,0.05,249
0.96,0.01,0.03,0.08,-0.04,0.05,249
0.96,0.01,0.03,0.05,-0.04,0.01,249
0.96,0.01,0.03,0.00,-0.03,-0.02,249
0.96,0.01,0.03,-0.01,-0.01,-0.01,249
0.96,0.01,0.03,-0.03,-0.06,0.02,249
0.96,0.01,0.03,-0.01,-0.05,0.05,249
0.96,0.01,0.03,0.02,0.01,-0.02,249
0.96,0.01,0.03,0.01,-0.02,-0.08,249
0.96,0.01,0.03,0.01,-0.04,-0.09,249
0.96,0.01,0.03,0.02,-0.02,-0.08,249
0.96,0.01,0.03,0.01,0.03,-0.03,249
0.96,0.01,0.03,0.02,0.03,0.01,249
0.96,0.01,0.03,0.02,-0.01,-0.01,249
0.96,0.01,0.03,0.02,-0.03,-0.02,249
0.96,0.01,0.03,-0.01,-0.01,-0.01,249
0.96,0.01,0.03,-0.03,0.01,0.02,249
0.96,0.01,0.03,-0.02,-0.02,0.01,249
0.96,0.01,0.03,-0.00,-0.05,-0.05,249
0.96,0.01,0.03,0.04,-0.03,-0.08,249
0.96,0.01,0.03,0.04,0.01,-0.03,249
0.96,0.01,0.03,0.01,-0.01,0.00,249
0.96,0.01,0.03,-0.01,-0.03,-0.03,249
0.96,0.01,0.03,-0.03,-0.05,-0.03,249
0.96,0.01,0.03,-0.01,-0.01,0.01,249
0.96,0.01,0.03,0.04,0.03,0.04,249
0.96,0.01,0.03,0.02,0.00,0.04,249
0.96,0.01,0.03,0.01,-0.03,0.05,249
0.96,0.01,0.03,-0.00,-0.01,0.02,249
0.96,0.01,0.03,0.01,0.01,-0.02,249
0.96,0.01,0.03,-0.01,0.00,0.02,249
0.96,0.01,0.03,-0.02,-0.01,0.04,249
0.96,0.01,0.03,0.00,-0.01,0.05,249
0.96,0.01,0.03,-0.01,-0.01,0.05,249
0.96,0.01,0.03,-0.00,0.01,0.04,249
0.96,0.01,0.03,0.00,0.01,0.03,249
0.96,0.01,0.03,0.02,-0.02,0.00,249
0.96,0.01,0.03,0.05,-0.02,-0.03,249
0.96,0.01,0.03,0.05,-0.01,-0.01,249
0.96,0.01,0.03,0.02,-0.00,0.01,249
0.96,0.01,0.03,0.00,0.01,0.01,249
0.96,0.01,0.03,0.00,0.03,-0.03,249
0.96,0.01,0.03,0.00,0.05,-0.04,249
0.96,0.01,0.03,0.02,0.02,-0.01,249
0.96,0.01,0.03,-0.01,0.01,0.01,249
0.96,0.01,0.03,-0.02,0.02,-0.02,249
0.96,0.01,0.03,0.03,0.01,-0.01,249
0.96,0.01,0.03,0.02,-0.00,0.01,249
0.96,0.01,0.03,-0.03,0.01,-0.03,249
0.96,0.01,0.03,-0.03,0.01,-0.04,249
0.96,0.01,0.03,-0.01,0.03,-0.05,249
0.96,0.01,0.03,-0.02,0.05,-0.06,249
0.96,0.01,0.03,0.01,0.03,-0.05,249
0.96,0.01,0.03,0.02,0.03,-0.02,249
0.96,0.01,0.03,0.01,0.03,-0.01,249
0.96,0.01,0.03,0.00,-0.01,-0.01,249
0.96,0.01,0.03,0.00,0.01,-0.03,249
0.96,0.01,0.03,0.00,0.05,-0.04,249
0.96,0.01,0.03,0.01,0.05,-0.03,249
0.96,0.01,0.03,0.03,0.03,-0.01,249
0.96,0.01,0.03,0.04,0.01,0.03,249
0.96,0.01,0.03,0.04,-0.04,0.01,249
0.96,0.01,0.03,0.03,-0.02,-0.00,249
0.96,0.01,0.03,0.05,-0.02,0.05,249
0.96,0.01,0.03,0.08,-0.03,0.04,249
0.96,0.01,0.03,0.03,0.01,0.01,249
0.96,0.01,0.03,-0.03,0.03,0.05,249
0.96,0.01,0.03,-0.03,0.01,0.04,249
0.96,0.01,0.03,0.00,0.03,0.05,249
0.96,0.01,0.03,0.01,0.04,0.06,249
0.96,0.01,0.03,0.04,0.04,0.02,249
0.96,0.01,0.03,0.01,-0.02,0.02,249
0.96,0.01,0.03,-0.01,-0.07,0.03,249
0.96,0.01,0.03,0.04,-0.04,0.02,249
0.96,0.01,0.03,0.02,-0.02,0.01,249
0.96,0.01,0.03,-0.01,-0.03,0.01,249
0.96,0.01,0.03,0.01,-0.02,-0.03,249
0.96,0.01,0.03,0.01,0.02,-0.03,249
0.96,0.01,0.03,-0.01,0.01,0.02,249
0.96,0.01,0.03,0.01,0.02,-0.01,249
0.96,0.01,0.03,0.01,0.01,-0.02,249
0.96,0.01,0.03,-0.01,-0.01,-0.01,249
0.96,0.01,0.03,-0.01,0.00,-0.04,249
0.96,0.01,0.03,0.02,-0.01,-0.03,249
0.96,0.01,0.03,0.02,-0.01,-0.01,249
0.96,0.01,0.03,-0.01,-0.01,0.01,249
0.96,0.01,0.03,0.00,-0.01,0.01,249
0.96,0.01,0.03,0.02,-0.00,-0.00,249
0.96,0.01,0.03,0.02,0.01,-0.01,249
0.96,0.01,0.03,0.00,0.01,-0.02,249
0.96,0.01,0.03,-0.03,-0.04,-0.01,249
0.96,0.01,0.03,-0.02,-0.04,-0.02,249
0.96,0.01,0.03,0.02,0.01,0.00,249
0.96,0.01,0.03,0.02,0.02,0.01,249
0.96,0.01,0.03,-0.03,-0.01,0.01,249
0.96,0.01,0.03,-0.02,-0.03,0.01,249
0.96,0.01,0.03,0.02,-0.03,0.00,249
0.96,0.01,0.03,0.01,-0.02,-0.01,249
0.96,0.01,0.03,-0.03,-0.02,-0.03,249
0.96,0.01,0.03,0.02,-0.01,-0.03,249
0.96,0.01,0.03,0.02,-0.03,0.02,249
0.96,0.01,0.03,-0.01,-0.03,0.06,249
0.96,0.01,0.03,0.05,0.03,0.05,249
0.96,0.01,0.03,0.04,0.03,0.06,249
0.96,0.01,0.03,-0.04,-0.03,0.03,249
0.96,0.01,0.03,-0.04,-0.01,-0.01,249
0.96,0.01,0.03,-0.03,-0.02,-0.04,249
0.96,0.01,0.03,-0.04,-0.02,-0.04,249
0.96,0.01,0.03,0.00,0.02,-0.01,249
0.96,0.01,0.03,-0.00,-0.01,0.02,249
0.96,0.01,0.03,-0.02,-0.01,0.04,249
0.96,0.01,0.03,0.00,-0.00,-0.01,249
0.96,0.01,0.03,-0.00,-0.01,-0.04,249
0.96,0.01,0.03,0.00,-0.01,-0.07,249
0.96,0.01,0.03,0.01,-0.00,-0.07,249
0.96,0.01,0.03,0.00,0.01,-0.03,249
0.96,0.01,0.03,-0.00,-0.02,0.02,249
0.96,0.01,0.03,0.02,-0.02,0.01,249
0.96,0.01,0.03,0.02,-0.01,-0.04,249
0.96,0.01,0.03,-0.01,-0.01,-0.02,249
0.96,0.01,0.03,-0.03,-0.03,0.01,249
0.96,0.01,0.03,-0.03,-0.01,-0.03,249
0.96,0.01,0.03,-0.01,-0.01,0.02,249
0.96,0.01,0.03,-0.01,-0.01,0.02,249
0.96,0.01,0.03,0.01,0.02,-0.05,249
0.96,0.01,0.03,-0.01,-0.01,-0.00,249
0.96,0.01,0.03,-0.01,-0.02,0.02,249
0.96,0.01,0.03,-0.02,-0.02,-0.01,249
0.96,0.01,0.03,-0.03,-0.01,0.03,249
0.96,0.01,0.03,0.01,0.01,0.04,249
0.96,0.01,0.03,0.02,-0.02,0.04,249
0.96,0.01,0.03,0.00,-0.02,0.01,249
0.96,0.01,0.03,0.00,-0.01,-0.02,249
0.96,0.01,0.03,0.01,-0.01,0.01,249
0.96,0.01,0.03,0.01,0.03,0.04,249
0.96,0.01,0.03,-0.02,0.02,0.03,249
0.96,0.01,0.03,-0.02,0.02,0.02,249
0.96,0.01,0.03,0.01,0.01,0.03,249
0.96,0.01,0.03,0.01,0.00,0.02,249
0.96,0.01,0.03,-0.00,0.02,0.01,249
0.96,0.01,0.03,0.02,0.03,-0.03,249
0.96,0.01,0.03,0.02,-0.01,-0.08,249
0.96,0.01,0.03,0.02,-0.04,-0.05,249
0.96,0.01,0.03,0.01,-0.01,0.01,249
0.96,0.01,0.03,-0.00,-0.05,0.03,249
0.96,0.01,0.03,-0.03,-0.08,-0.03,249
0.96,0.01,0.03,-0.01,-0.04,-0.07,249
0.96,0.01,0.03,0.02,0.01,-0.04,249
0.96,0.01,0.03,0.01,-0.03,-0.03,249
0.96,0.01,0.03,0.05,-0.01,-0.04,249
0.96,0.01,0.03,0.05,0.00,-0.04,249
0.96,0.01,0.03,-0.00,-0.02,-0.04,249
0.96,0.01,0.03,-0.01,0.01,-0.04,249
0.96,0.01,0.03,-0.01,0.01,-0.06,249
0.96,0.01,0.03,-0.01,0.01,-0.02,249
0.96,0.01,0.03,0.02,-0.02,-0.01,249
0.96,0.01,0.03,0.00,-0.04,-0.02,249
0.96,0.01,0.03,-0.04,-0.02,0.03,249
0.96,0.01,0.03,-0.02,-0.01,0.03,249
0.96,0.01,0.03,0.02,-0.02,0.04,249
0.96,0.01,0.03,-0.00,-0.02,0.02,249
0.96,0.01,0.03,-0.02,-0.02,-0.02,249
0.96,0.01,0.03,-0.01,-0.00,0.02,249
0.96,0.01,0.03,-0.03,0.03,0.04,249
0.96,0.01,0.03,-0.02,0.03,0.01,249
0.96,0.01,0.03,-0.01,0.01,-0.01,249
0.96,0.01,0.03,0.00,0.00,0.01,249
0.96,0.01,0.03,0.01,-0.00,0.01,249
0.96,0.01,0.03,-0.03,-0.02,-0.03,249
0.96,0.01,0.03,-0.05,-0.02,0.00,249
0.96,0.01,0.03,-0.05,-0.00,0.01,249
0.96,0.01,0.03,-0.01,-0.01,-0.01,249
0.96,0.01,0.03,0.01,-0.03,-0.01,249
0.96,0.01,0.03,0.03,-0.01,-0.05,249
0.96,0.01,0.03,0.02,-0.01,-0.04,249
0.96,0.01,0.03,-0.03,-0.02,-0.04,249
0.96,0.01,0.03,-0.04,-0.01,-0.03,249
0.96,0.01,0.03,-0.03,-0.01,0.01,249
0.96,0.01,0.03,-0.03,-0.02,-0.03,250
0.96,0.01,0.03,-0.02,-0.04,-0.07,249
0.96,0.01,0.03,-0.00,-0.01,-0.05,249
0.96,0.01,0.03,-0.00,0.00,0.01,249
0.96,0.01,0.03,0.02,-0.01,0.04,249
0.96,0.01,0.03,0.01,-0.02,0.03,249
0.96,0.01,0.03,0.01,-0.02,0.01,249
0.96,0.01,0.03,0.00,-0.01,0.02,249
0.96,0.01,0.03,-0.00,-0.02,-0.02,249
0.96,0.01,0.03,0.02,-0.05,-0.03,249
0.96,0.01,0.03,-0.03,-0.05,-0.01,249
0.96,0.01,0.03,-0.03,-0.02,-0.01,249
0.96,0.01,0.03,-0.01,0.01,0.00,249
0.96,0.01,0.03,-0.04,0.00,0.02,249
0.96,0.01,0.03,-0.03,0.01,-0.02,249
0.96,0.01,0.03,-0.01,0.03,-0.04,249
0.96,0.01,0.03,0.00,-0.01,-0.00,249
0.96,0.01,0.03,0.03,-0.02,-0.04,249
0.96,0.01,0.03,0.01,-0.02,-0.02,249
0.96,0.01,0.03,-0.00,-0.02,0.03,249
0.96,0.01,0.03,-0.04,-0.04,-0.01,249
0.96,0.01,0.03,-0.06,-0.06,-0.03,249
0.96,0.01,0.03,-0.03,-0.01,0.02,250
0.96,0.01,0.03,-0.02,-0.01,-0.01,249
0.96,0.01,0.03,-0.00,-0.03,-0.06,249
0.96,0.01,0.03,0.04,-0.02,-0.02,249
0.96,0.01,0.03,0.02,-0.04,-0.02,249
0.96,0.01,0.03,-0.01,-0.04,-0.03,249
0.96,0.01,0.03,-0.01,-0.03,0.02,249
0.96,0.01,0.03,-0.02,0.01,0.05,249
0.96,0.01,0.03,-0.02,0.04,0.03,249
0.96,0.01,0.03,-0.03,0.01,-0.00,249
0.96,0.01,0.03,-0.02,-0.00,-0.02,249
0.96,0.01,0.03,0.00,0.01,-0.02,249
0.96,0.01,0.03,-0.00,-0.03,-0.03,249
0.96,0.01,0.03,-0.03,-0.02,-0.01,249
0.96,0.01,0.03,0.02,-0.00,-0.03,249
0.96,0.01,0.03,0.05,-0.03,-0.04,249
0.96,0.01,0.03,0.00,-0.02,-0.05,249
0.96,0.01,0.03,-0.03,0.01,-0.04,249
0.96,0.01,0.03,-0.01,0.01,-0.01,249
0.96,0.01,0.03,0.01,0.01,-0.01,249
0.96,0.01,0.03,0.02,-0.01,-0.01,249
0.96,0.01,0.03,0.03,0.00,-0.01,249
0.96,0.01,0.03,0.02,0.03,-0.01,249
0.96,0.01,0.03,-0.01,-0.02,-0.01,249
0.96,0.01,0.03,0.02,-0.03,0.02,249
0.96,0.01,0.03,0.01,-0.03,-0.01,249
0.96,0.01,0.03,-0.01,-0.00,-0.01,249
0.96,0.01,0.03,0.02,0.02,0.01,249
0.96,0.01,0.03,0.04,0.01,-0.01,249
0.96,0.01,0.03,0.04,0.03,-0.01,249
0.96,0.01,0.03,0.01,0.01,-0.01,249
0.96,0.01,0.03,0.00,-0.00,-0.02,249
0.96,0.01,0.03,-0.00,-0.01,-0.04,249
0.96,0.01,0.03,-0.01,-0.02,-0.02,249
0.96,0.01,0.03,-0.01,-0.01,-0.01,249
0.96,0.01,0.03,-0.02,-0.02,0.01,249
0.96,0.01,0.03,0.00,0.02,-0.01,249
0.96,0.01,0.03,0.00,0.06,-0.02,249
0.96,0.01,0.03,-0.01,0.03,0.01,249
0.96,0.01,0.03,-0.03,0.01,0.04,249
0.96,0.01,0.03,-0.03,0.03,0.04,249
0.96,0.01,0.03,0.01,0.00,0.01,249
0.96,0.01,0.03,0.00,0.00,0.02,249
0.96,0.01,0.03,0.02,0.00,0.01,249
0.96,0.01,0.03,0.00,-0.03,0.00,249
0.96,0.01,0.03,-0.01,-0.03,-0.00,249
0.96,0.01,0.03,0.02,0.01,-0.01,249
0.96,0.01,0.03,0.00,-0.00,-0.03,249
0.96,0.01,0.03,0.02,-0.04,-0.06,249
0.96,0.01,0.03,-0.00,-0.03,-0.03,249
0.96,0.01,0.03,-0.02,-0.01,0.01,249
0.96,0.01,0.03,-0.02,-0.01,0.02,249
0.96,0.01,0.03,-0.02,-0.03,-0.02,249
0.96,0.01,0.03,-0.00,-0.03,-0.03,249
0.96,0.01,0.03,-0.01,0.00,0.00,249
0.96,0.01,0.03,-0.02,0.01,0.03,250
0.96,0.01,0.03,-0.04,-0.01,0.01,249
0.96,0.01,0.03,-0.03,-0.02,-0.01,249
0.96,0.01,0.03,0.00,-0.01,0.00,249
0.96,0.01,0.03,0.04,-0.00,0.00,249
0.96,0.01,0.03,0.04,-0.03,-0.01,250
0.96,0.01,0.03,-0.01,-0.00,0.01,249
0.96,0.01,0.03,0.00,0.03,0.02,249
0.96,0.01,0.03,-0.01,0.01,-0.03,249
0.96,0.01,0.03,0.00,0.01,-0.01,249
0.96,0.01,0.03,0.03,0.04,0.04,249
0.96,0.01,0.03,0.01,-0.00,0.02,249
0.96,0.01,0.03,-0.01,-0.00,-0.01,249
0.96,0.01,0.03,-0.06,0.03,0.01,249
0.96,0.01,0.03,-0.04,-0.01,0.00,249
0.96,0.01,0.03,-0.03,-0.01,0.02,250
0.96,0.01,0.03,-0.03,-0.00,0.04,249
0.96,0.01,0.03,0.00,-0.02,0.02,249
0.96,0.01,0.03,0.02,0.01,-0.00,249
0.96,0.01,0.03,-0.02,-0.00,-0.03,249
0.96,0.01,0.03,-0.04,-0.00,-0.02,249
0.96,0.01,0.03,0.00,-0.02,-0.00,249
0.96,0.01,0.03,-0.01,-0.04,-0.01,249
0.96,0.01,0.03,0.00,-0.03,0.01,249
0.96,0.01,0.03,0.02,-0.02,0.04,249
0.96,0.01,0.03,0.01,-0.02,0.01,249
0.96,0.01,0.03,0.03,-0.01,0.00,249
0.96,0.01,0.03,0.01,-0.02,0.04,249
0.96,0.01,0.03,-0.02,0.01,0.02,249
0.96,0.01,0.03,-0.01,0.01,-0.05,249
0.96,0.01,0.03,0.00,-0.01,-0.05,249
0.96,0.01,0.03,0.01,-0.00,-0.02,249
0.96,0.01,0.03,0.04,0.01,-0.02,249
0.96,0.01,0.03,0.03,-0.02,-0.04,249
0.96,0.01,0.03,0.01,-0.03,-0.03,249
0.96,0.01,0.03,0.01,-0.02,-0.02,249
0.96,0.01,0.03,0.01,-0.01,-0.05,250
0.96,0.01,0.03,-0.00,-0.00,-0.01,249
0.96,0.01,0.03,-0.01,-0.01,0.00,249
0.96,0.01,0.03,-0.03,0.01,-0.01,249
0.96,0.01,0.03,-0.03,0.03,-0.01,249
0.96,0.01,0.03,-0.00,-0.00,-0.02,249
0.96,0.01,0.03,0.00,0.00,-0.01,249
0.96,0.01,0.03,-0.00,0.03,-0.02,249
0.96,0.01,0.03,0.02,0.05,-0.02,249
0.96,0.01,0.03,0.01,0.02,0.00,249
0.96,0.01,0.03,0.02,-0.07,0.01,249
0.96,0.01,0.03,0.02,-0.08,0.03,249
0.96,0.01,0.03,-0.04,-0.05,0.04,249
0.96,0.01,0.03,-0.05,-0.01,0.01,249
0.96,0.01,0.03,-0.02,0.02,0.01,249
0.96,0.01,0.03,-0.00,-0.01,0.03,249
0.96,0.01,0.03,0.00,-0.04,0.02,249
0.96,0.01,0.03,0.02,-0.00,0.03,249
0.96,0.01,0.03,0.04,0.00,0.01,249
0.96,0.01,0.03,0.04,0.02,-0.02,249
0.96,0.01,0.03,-0.01,0.04,-0.01,249
0.96,0.01,0.03,-0.01,0.03,-0.04,249
0.96,0.01,0.03,0.00,-0.02,-0.06,249
0.96,0.01,0.03,-0.02,-0.07,-0.02,249
0.96,0.01,0.03,-0.03,-0.02,0.00,249
0.96,0.01,0.03,-0.01,0.00,-0.01,249
0.96,0.01,0.03,0.01,-0.04,-0.01,249
0.96,0.01,0.03,-0.01,-0.04,-0.02,249
0.96,0.01,0.03,0.01,-0.01,-0.02,249
0.96,0.01,0.03,0.03,-0.02,-0.03,249
0.96,0.01,0.03,0.00,-0.01,-0.02,249
0.96,0.01,0.03,-0.03,-0.01,-0.00,249
0.96,0.01,0.03,-0.02,-0.05,-0.00,249
0.96,0.01,0.03,-0.00,-0.03,0.03,249
0.96,0.01,0.03,-0.04,-0.03,-0.01,249
0.96,0.01,0.03,-0.02,-0.01,-0.02,249
0.96,0.01,0.03,0.00,-0.00,0.04,249
0.96,0.01,0.03,-0.00,-0.01,0.03,249
0.96,0.01,0.03,0.02,0.02,0.02,249
0.96,0.01,0.03,-0.01,-0.03,0.05,249
0.96,0.01,0.03,-0.04,-0.05,0.04,249
0.96,0.01,0.03,-0.01,-0.02,0.03,249
0.96,0.01,0.03,-0.01,0.00,-0.00,249
0.96,0.01,0.03,-0.03,-0.02,-0.02,249
0.96,0.01,0.03,-0.03,-0.03,-0.01,249
0.96,0.01,0.03,-0.01,0.00,-0.03,249
0.96,0.01,0.03,0.00,0.00,-0.02,249
0.96,0.01,0.03,0.02,-0.00,-0.01,249
0.96,0.01,0.03,0.02,0.03,-0.01,249
0.96,0.01,0.03,0.02,0.03,0.02,249
0.96,0.01,0.03,0.04,0.00,0.00,249
0.96,0.01,0.03,0.03,-0.01,-0.02,249
0.96,0.01,0.03,0.04,-0.04,0.00,249
0.96,0.01,0.03,0.02,-0.05,0.04,249
0.96,0.01,0.03,-0.01,-0.01,0.03,249
0.96,0.01,0.03,-0.01,-0.02,-0.04,249
0.96,0.01,0.03,-0.02,-0.03,-0.02,249
0.96,0.01,0.03,-0.02,0.02,0.05,249
0.96,0.01,0.03,-0.02,0.05,0.02,249
0.96,0.01,0.03,0.01,0.02,0.02,249
0.96,0.01,0.03,-0.01,0.01,0.03,249
0.96,0.01,0.03,-0.01,0.02,0.02,249
0.96,0.01,0.03,-0.00,-0.03,0.02,249
0.96,0.01,0.03,-0.03,-0.05,0.02,249
0.96,0.01,0.03,-0.05,-0.03,-0.01,249
0.96,0.01,0.03,-0.03,-0.01,-0.01,249
0.96,0.01,0.03,0.02,0.03,0.01,249
0.96,0.01,0.03,0.05,0.00,-0.01,249
0.96,0.01,0.03,0.04,-0.05,0.03,249
0.96,0.01,0.03,-0.01,0.01,0.06,249
0.96,0.01,0.03,0.00,0.03,0.07,249
0.96,0.01,0.03,0.03,0.00,0.01,249
0.96,0.01,0.03,-0.04,-0.02,-0.04,249
0.96,0.01,0.03,-0.06,-0.00,-0.03,249
0.96,0.01,0.03,0.00,0.02,0.04,249
0.96,0.01,0.03,0.05,-0.00,0.08,249
0.96,0.01,0.03,0.03,-0.05,0.01,249
0.96,0.01,0.03,0.01,-0.06,-0.01,249
0.96,0.01,0.03,0.01,-0.08,-0.03,249
0.96,0.01,0.03,-0.04,-0.05,-0.02,249
0.96,0.01,0.03,-0.03,-0.05,0.03,249
0.96,0.01,0.03,0.00,-0.07,0.02,249
0.96,0.01,0.03,-0.02,-0.07,0.03,249
0.96,0.01,0.03,-0.05,-0.10,-0.02,249
0.96,0.01,0.03,-0.02,-0.07,-0.04,249
0.96,0.01,0.03,0.02,0.01,-0.01,249
0.96,0.01,0.03,-0.00,0.02,0.01,249
0.96,0.01,0.03,-0.01,0.00,0.05,249
0.96,0.01,0.03,0.00,-0.01,0.02,249
0.96,0.01,0.03,-0.01,-0.04,-0.04,249
0.96,0.01,0.03,0.00,-0.02,-0.01,249
0.96,0.01,0.03,0.09,-0.01,-0.02,249
0.96,0.01,0.03,0.03,-0.01,-0.01,249
0.96,0.01,0.03,-0.02,0.00,0.02,249
0.96,0.01,0.03,0.04,-0.03,-0.02,249
0.96,0.01,0.03,0.06,-0.05,-0.03,249
0.96,0.01,0.03,0.05,-0.02,-0.02,249
0.96,0.01,0.03,0.02,0.00,-0.02,249
0.96,0.01,0.03,-0.01,-0.02,0.01,249
0.96,0.01,0.03,-0.03,-0.03,-0.00,249
0.96,0.01,0.03,0.00,0.01,-0.03,249
0.96,0.01,0.03,0.04,-0.00,-0.02,249
0.96,0.01,0.03,0.02,0.00,-0.01,249
0.96,0.01,0.03,-0.00,-0.02,-0.01,249
0.96,0.01,0.03,-0.00,-0.01,-0.02,249
0.96,0.01,0.03,0.00,0.03,0.01,249
0.96,0.01,0.03,0.03,0.01,-0.01,249
0.96,0.01,0.03,0.04,0.00,-0.02,249
0.96,0.01,0.03,-0.01,-0.02,0.02,249
0.96,0.01,0.03,-0.02,-0.03,0.03,249
0.96,0.01,0.03,0.02,-0.03,0.03,249
0.96,0.01,0.03,0.03,-0.03,0.04,249
0.96,0.01,0.03,0.04,-0.04,0.04,249
0.96,0.01,0.03,0.02,-0.04,0.02,249
0.96,0.01,0.03,-0.00,-0.03,0.03,249
0.96,0.01,0.03,0.00,-0.02,0.00,249
0.96,0.01,0.03,0.01,-0.01,-0.02,249
0.96,0.01,0.03,0.00,-0.02,-0.02,249
0.96,0.01,0.03,-0.01,-0.01,-0.02,249
0.96,0.01,0.03,-0.02,-0.01,0.01,249
0.96,0.01,0.03,-0.01,0.00,0.04,249
0.96,0.01,0.03,0.01,0.01,-0.03,249
0.96,0.01,0.03,0.02,-0.05,-0.08,249
0.96,0.01,0.03,0.01,-0.07,-0.04,249
0.96,0.01,0.03,0.02,-0.03,-0.00,249
0.96,0.01,0.03,0.00,0.02,0.01,249
0.96,0.01,0.03,0.00,0.03,-0.01,249
0.96,0.01,0.03,0.02,-0.00,-0.02,249
0.96,0.01,0.03,0.01,0.01,-0.01,249
0.96,0.01,0.03,0.03,0.03,0.01,249
0.96,0.01,0.03,0.03,-0.02,-0.03,249
0.96,0.01,0.03,-0.02,-0.05,-0.04,249
0.96,0.01,0.03,-0.02,-0.03,-0.02,249
0.96,0.01,0.03,0.00,-0.01,-0.02,249
0.96,0.01,0.03,0.00,0.02,0.01,249
0.96,0.01,0.03,0.02,0.04,0.01,249
0.96,0.01,0.03,0.00,0.03,-0.01,249
0.96,0.01,0.03,0.01,-0.02,-0.01,249
0.96,0.01,0.03,0.04,-0.00,-0.02,249
0.96,0.01,0.03,0.01,-0.01,-0.03,249
0.96,0.01,0.03,-0.01,-0.07,0.03,249
0.96,0.01,0.03,-0.00,-0.04,0.00,249
0.96,0.01,0.03,0.00,0.02,-0.02,249
0.96,0.01,0.03,0.04,-0.00,0.03,249
0.96,0.01,0.03,0.03,0.02,0.03,249
0.96,0.01,0.03,0.02,0.05,0.03,249
0.96,0.01,0.03,0.02,0.04,0.04,249
0.96,0.01,0.03,-0.01,0.02,0.01,249
0.96,0.01,0.03,0.01,0.00,0.03,249
0.96,0.01,0.03,0.03,-0.00,0.01,249
0.96,0.01,0.03,0.00,-0.01,-0.00,249
0.96,0.01,0.03,0.01,-0.03,0.03,249
0.96,0.01,0.03,0.03,-0.03,0.01,249
0.96,0.01,0.03,0.03,-0.02,-0.02,249
0.96,0.01,0.03,0.03,-0.03,-0.01,249
0.96,0.01,0.03,-0.00,-0.02,-0.04,249
0.96,0.01,0.03,0.00,-0.01,-0.03,249
0.96,0.01,0.03,-0.00,0.03,-0.01,249
0.96,0.01,0.03,0.02,0.03,-0.07,249
0.96,0.01,0.03,0.02,0.00,-0.03,249
0.96,0.01,0.03,0.02,-0.01,0.02,249
0.96,0.01,0.03,0.03,0.01,-0.01,249
0.96,0.01,0.03,0.01,0.02,-0.04,249
0.96,0.01,0.03,0.01,0.00,-0.00,249
0.96,0.01,0.03,0.00,-0.03,0.01,249
0.96,0.01,0.03,-0.01,-0.01,-0.00,249
0.96,0.01,0.03,-0.03,0.01,-0.03,249
0.96,0.01,0.03,-0.03,0.02,-0.04,249
0.96,0.01,0.03,-0.01,0.00,-0.02,249
0.96,0.01,0.03,-0.01,-0.03,0.01,249
0.96,0.01,0.03,0.01,-0.02,0.01,249
0.96,0.01,0.03,0.01,0.02,-0.01,249
0.96,0.01,0.03,0.00,0.05,-0.02,249
0.96,0.01,0.03,0.00,0.04,-0.01,249
0.96,0.01,0.03,-0.02,-0.05,0.02,249
0.96,0.01,0.03,-0.03,-0.06,0.04,249
0.96,0.01,0.03,0.02,0.02,0.06,249
0.96,0.01,0.03,0.04,0.00,0.05,249
0.96,0.01,0.03,0.05,-0.05,0.01,249
0.96,0.01,0.03,0.04,-0.00,-0.01,249
0.96,0.01,0.03,-0.01,-0.01,0.03,249
0.96,0.01,0.03,-0.02,-0.03,0.03,249
0.96,0.01,0.03,-0.01,0.02,0.03,249
0.96,0.01,0.03,-0.01,0.02,0.04,249
0.96,0.01,0.03,-0.02,-0.00,0.01,249
0.96,0.01,0.03,0.01,0.00,0.01,249
0.96,0.01,0.03,0.00,-0.00,-0.01,249
0.96,0.01,0.03,-0.01,-0.03,-0.04,249
0.96,0.01,0.03,-0.01,-0.05,-0.04,249
0.96,0.01,0.03,-0.02,-0.01,-0.04,249
0.96,0.01,0.03,-0.04,-0.00,-0.01,249
0.96,0.01,0.03,-0.02,0.00,0.00,249
0.96,0.01,0.03,0.01,-0.01,-0.01,249
0.96,0.01,0.03,-0.01,-0.01,-0.02,249
0.96,0.01,0.03,-0.02,0.02,-0.01,249
0.96,0.01,0.03,-0.03,0.02,0.01,249
0.96,0.01,0.03,-0.02,0.03,0.02,249
0.96,0.01,0.03,0.00,0.05,-0.01,249
0.96,0.01,0.03,0.00,0.04,-0.04,249
0.96,0.01,0.03,0.00,0.02,-0.03,249
0.96,0.01,0.03,0.01,0.01,-0.02,249
0.96,0.01,0.03,0.04,0.00,0.04,249
0.96,0.01,0.03,0.01,-0.00,0.06,249
0.96,0.01,0.03,-0.02,-0.03,0.02,249
0.96,0.01,0.03,0.02,-0.08,-0.03,249
0.96,0.01,0.03,0.03,-0.08,-0.07,249
0.96,0.01,0.03,0.00,-0.03,-0.04,249
0.96,0.01,0.03,0.00,0.00,0.03,249
0.96,0.01,0.03,0.02,0.00,0.03,249
0.96,0.01,0.03,0.04,-0.01,-0.00,249
0.96,0.01,0.03,0.04,0.02,0.01,249
0.96,0.01,0.03,-0.01,0.03,0.04,249
0.96,0.01,0.03,-0.01,0.02,0.02,249
0.96,0.01,0.03,0.04,0.03,0.01,249
0.96,0.01,0.03,-0.01,0.00,-0.02,249
0.96,0.01,0.03,-0.06,-0.02,-0.01,249
0.96,0.01,0.03,-0.07,-0.03,0.02,249
0.96,0.01,0.03,-0.03,-0.01,0.01,249
0.96,0.01,0.03,0.02,0.02,-0.01,249
0.96,0.01,0.03,-0.01,-0.00,0.02,249
0.96,0.01,0.03,-0.03,-0.01,0.03,249
0.96,0.01,0.03,-0.00,-0.03,0.02,249
0.96,0.01,0.03,0.02,-0.07,0.02,249
0.96,0.01,0.03,0.01,-0.04,-0.02,249
0.96,0.01,0.03,-0.02,0.00,-0.02,249
0.96,0.01,0.03,-0.05,0.00,-0.04,249
0.96,0.01,0.03,-0.02,-0.03,-0.05,249
0.96,0.01,0.03,0.02,-0.01,-0.04,249
0.96,0.01,0.03,0.02,0.00,-0.04,249
0.96,0.01,0.03,0.02,-0.01,-0.05,249
0.96,0.01,0.03,0.00,-0.06,-0.04,249
0.96,0.01,0.03,-0.02,-0.06,-0.01,249
0.96,0.01,0.03,0.00,-0.05,0.01,249
0.96,0.01,0.03,-0.01,-0.07,0.01,249
0.96,0.01,0.03,-0.03,-0.03,0.01,249
0.96,0.01,0.03,0.00,0.00,0.03,249
0.96,0.01,0.03,-0.00,0.02,0.04,249
0.96,0.01,0.03,0.01,0.00,0.04,249
0.96,0.01,0.03,0.02,0.01,0.04,249
0.96,0.01,0.03,0.00,-0.00,0.04,249
0.96,0.01,0.03,-0.01,-0.03,0.04,249
0.96,0.01,0.03,-0.01,-0.00,0.00,249
0.96,0.01,0.03,0.03,0.02,0.02,249
0.96,0.01,0.03,0.01,-0.01,0.04,249
0.96,0.01,0.03,0.01,-0.02,0.01,249
0.96,0.01,0.03,-0.00,-0.02,0.00,249
0.96,0.01,0.03,-0.03,-0.06,0.03,249
0.96,0.01,0.03,-0.01,-0.03,0.03,249
0.96,0.01,0.03,-0.00,0.00,-0.03,249
0.96,0.01,0.03,-0.01,-0.04,-0.04,249
0.96,0.01,0.03,-0.01,-0.06,-0.06,249
0.96,0.01,0.03,-0.00,-0.02,-0.09,249
0.96,0.01,0.03,0.03,0.01,-0.04,249
0.96,0.01,0.03,-0.02,0.01,-0.02,249
0.96,0.01,0.03,-0.03,0.02,-0.04,249
0.96,0.01,0.03,-0.03,0.01,-0.03,249
0.96,0.01,0.03,-0.04,0.00,-0.02,249
0.96,0.01,0.03,0.00,0.01,-0.03,249
0.96,0.01,0.03,-0.00,0.04,-0.04,249
0.96,0.01,0.03,0.00,0.02,-0.02,249
0.96,0.01,0.03,0.01,-0.00,-0.02,249
0.96,0.01,0.03,-0.01,0.03,-0.02,249
0.96,0.01,0.03,-0.04,0.03,-0.04,249
0.96,0.01,0.03,-0.04,-0.01,-0.03,249
0.96,0.01,0.03,-0.00,-0.02,0.01,249
0.96,0.01,0.03,-0.00,-0.01,-0.01,249
0.96,0.01,0.03,-0.00,0.01,0.03,249
0.96,0.01,0.03,-0.03,0.02,0.05,249
0.96,0.01,0.03,-0.02,0.01,0.03,249
0.96,0.01,0.03,-0.01,0.03,0.01,249
0.96,0.01,0.03,-0.04,0.04,0.04,249
0.96,0.01,0.03,-0.01,0.03,0.07,249
0.96,0.01,0.03,0.04,-0.04,0.04,249
0.96,0.01,0.03,0.05,-0.06,0.04,249
0.96,0.01,0.03,0.03,0.03,0.06,249
0.96,0.01,0.03,0.01,0.02,0.04,249
0.96,0.01,0.03,0.00,-0.05,0.00,249
0.96,0.01,0.03,0.01,-0.04,0.00,249
0.96,0.01,0.03,0.02,-0.01,-0.00,249
0.96,0.01,0.03,-0.01,0.03,-0.01,249
0.96,0.01,0.03,0.03,0.01,0.01,249
0.96,0.01,0.03,0.03,-0.02,0.07,249
0.96,0.01,0.03,0.02,0.02,0.07,249
0.96,0.01,0.03,0.05,-0.01,0.05,249
0.96,0.01,0.03,0.01,-0.01,0.01,249
0.96,0.01,0.03,0.02,0.05,-0.04,249
0.96,0.01,0.03,0.01,0.03,-0.04,249
0.96,0.01,0.03,-0.02,0.01,-0.06,249
0.96,0.01,0.03,-0.01,-0.00,-0.03,249
0.96,0.01,0.03,0.01,0.00,-0.00,249
0.96,0.01,0.03,0.03,0.02,-0.01,249
0.96,0.01,0.03,0.01,0.03,-0.02,249
0.96,0.01,0.03,0.01,-0.03,-0.03,249
0.96,0.01,0.03,0.01,-0.02,-0.03,249
0.96,0.01,0.03,0.01,0.02,-0.00,249
0.96,0.01,0.03,0.02,-0.01,0.03,249
0.96,0.01,0.03,0.03,0.00,0.03,249
0.96,0.01,0.03,0.02,-0.01,0.03,249
0.96,0.01,0.03,-0.01,-0.02,0.03,249
0.96,0.01,0.03,0.00,0.01,0.02,249
0.96,0.01,0.03,-0.01,-0.01,0.02,249
0.96,0.01,0.03,-0.04,0.04,0.03,249
0.96,0.01,0.03,-0.01,0.04,0.05,249
0.96,0.01,0.03,0.00,0.00,0.04,249
0.96,0.01,0.03,0.01,0.00,0.04,249
0.96,0.01,0.03,0.00,-0.00,0.05,249
0.96,0.01,0.03,-0.00,0.00,0.02,249
0.96,0.01,0.03,0.00,0.02,-0.02,249
0.96,0.01,0.03,-0.01,0.02,-0.02,249
0.96,0.01,0.03,-0.05,-0.05,-0.04,249
0.96,0.01,0.03,-0.03,-0.07,-0.01,249
0.96,0.01,0.03,0.02,-0.03,0.01,249
0.96,0.01,0.03,0.00,-0.04,-0.00,249
0.96,0.01,0.03,-0.01,-0.02,-0.01,249
0.96,0.01,0.03,0.00,-0.01,-0.01,249
0.96,0.01,0.03,0.00,-0.04,0.01,249
0.96,0.01,0.03,-0.00,-0.04,0.01,249
0.96,0.01,0.03,-0.04,-0.05,-0.01,249
0.96,0.01,0.03,-0.03,-0.03,-0.01,249
0.96,0.01,0.03,0.01,-0.03,0.01,249
0.96,0.01,0.03,0.01,-0.03,-0.04,249
0.96,0.01,0.03,0.01,0.01,-0.06,249
0.96,0.01,0.03,-0.02,0.01,-0.04,249
0.96,0.01,0.03,-0.01,-0.01,-0.02,249
0.96,0.01,0.03,-0.01,0.01,0.01,249
0.96,0.01,0.03,-0.04,-0.02,0.03,249
0.96,0.01,0.03,-0.01,-0.02,0.04,249
0.96,0.01,0.03,0.00,0.01,-0.00,249
0.96,0.01,0.03,-0.01,0.02,-0.01,249
0.96,0.01,0.03,0.00,0.03,0.01,249
0.96,0.01,0.03,0.01,0.03,0.03,249
0.96,0.01,0.03,-0.03,0.03,0.03,249
0.96,0.01,0.03,-0.05,0.03,0.02,249
0.96,0.01,0.03,-0.01,0.02,0.01,249
0.96,0.01,0.03,0.03,-0.01,-0.02,249
0.96,0.01,0.03,-0.01,0.01,0.01,249
0.96,0.01,0.03,-0.04,-0.00,0.04,249
0.96,0.01,0.03,-0.04,-0.03,0.01,249
0.96,0.01,0.03,-0.04,-0.03,0.04,249
0.96,0.01,0.03,-0.02,-0.01,0.05,249
0.96,0.01,0.03,0.02,0.03,0.03,249
0.96,0.01,0.03,0.04,0.01,0.04,249
0.96,0.01,0.03,0.02,-0.01,0.02,249
0.96,0.01,0.03,0.02,0.01,-0.01,249
0.96,0.01,0.03,-0.01,0.02,-0.04,249
0.96,0.01,0.03,-0.03,0.03,-0.03,249
0.96,0.01,0.03,0.01,0.08,0.02,249
0.96,0.01,0.03,0.01,0.05,0.00,249
0.96,0.01,0.03,0.02,-0.00,-0.01,249
0.96,0.01,0.03,-0.00,-0.05,-0.01,249
0.96,0.01,0.03,0.02,-0.04,0.00,249
0.96,0.01,0.03,0.05,0.02,0.04,249
0.96,0.01,0.03,0.04,-0.01,-0.00,249
0.96,0.01,0.03,0.02,0.01,-0.01,249
0.96,0.01,0.03,0.01,0.03,-0.02,249
0.96,0.01,0.03,0.03,0.01,-0.06,249
0.96,0.01,0.03,-0.01,0.02,0.00,249
0.96,0.01,0.03,0.00,0.03,0.07,249
0.96,0.01,0.03,0.02,0.04,0.03,249
0.96,0.01,0.03,-0.04,-0.00,0.00,249
0.96,0.01,0.03,-0.04,-0.02,0.02,249
0.96,0.01,0.03,-0.03,-0.01,0.04,249
0.96,0.01,0.03,-0.03,0.01,0.07,249
0.96,0.01,0.03,-0.04,0.01,0.05,249
0.96,0.01,0.03,-0.05,-0.02,0.02,249
0.96,0.01,0.03,-0.02,-0.04,0.02,249
0.96,0.01,0.03,0.00,-0.04,0.00,249
0.96,0.01,0.03,-0.01,0.00,-0.01,249
0.96,0.01,0.03,0.00,0.02,0.02,249
0.96,0.01,0.03,-0.01,-0.01,0.04,249
0.96,0.01,0.03,0.01,-0.03,-0.01,249
0.96,0.01,0.03,0.04,-0.03,-0.01,249
0.96,0.01,0.03,-0.00,-0.00,-0.01,249
0.96,0.01,0.03,-0.01,0.04,-0.01,249
0.96,0.01,0.03,0.02,0.00,-0.01,249
0.96,0.01,0.03,0.01,-0.06,0.00,249
0.96,0.01,0.03,-0.01,-0.04,-0.01,249
0.96,0.01,0.03,-0.01,-0.03,-0.01,249
0.96,0.01,0.03,0.00,-0.01,-0.01,249
0.96,0.01,0.03,0.02,0.00,-0.06,249
0.96,0.01,0.03,0.00,-0.02,-0.05,249
0.96,0.01,0.03,-0.00,-0.01,-0.02,249
0.96,0.01,0.03,-0.01,-0.03,-0.01,249
0.96,0.01,0.03,-0.01,-0.03,-0.02,249
0.96,0.01,0.03,0.02,0.01,0.00,249
0.96,0.01,0.03,0.01,0.02,-0.01,249
0.96,0.01,0.03,0.01,0.02,0.02,249
0.96,0.01,0.03,-0.01,0.02,0.04,249
0.96,0.01,0.03,-0.04,-0.01,-0.01,249
0.96,0.01,0.03,-0.06,-0.03,-0.04,249
0.96,0.01,0.03,-0.04,-0.03,-0.04,249
0.96,0.01,0.03,0.02,-0.03,-0.02,249
0.96,0.01,0.03,-0.02,-0.03,-0.01,249
0.96,0.01,0.03,-0.04,-0.00,0.01,249
0.96,0.01,0.03,0.01,0.03,0.01,249
0.96,0.01,0.03,0.03,0.01,0.01,249
0.96,0.01,0.03,0.04,-0.03,0.06,249
0.96,0.01,0.03,0.05,-0.01,0.09,249
0.96,0.01,0.03,0.01,0.01,0.06,249
0.96,0.01,0.03,-0.01,0.01,0.06,249
0.96,0.01,0.03,-0.01,0.04,0.05,249
0.96,0.01,0.03,-0.04,0.01,-0.03,249
0.96,0.01,0.03,-0.02,-0.03,-0.08,249
0.96,0.01,0.03,0.02,-0.00,-0.06,249
0.96,0.01,0.03,-0.03,0.01,-0.01,249
0.96,0.01,0.03,-0.04,-0.00,0.01,249
0.96,0.01,0.03,-0.00,0.02,-0.01,249
0.96,0.01,0.03,0.00,0.01,-0.00,249
0.96,0.01,0.03,0.00,-0.03,0.01,249
0.96,0.01,0.03,0.00,-0.05,-0.03,249
0.96,0.01,0.03,0.01,-0.01,-0.07,249
0.96,0.01,0.03,-0.01,0.06,-0.08,249
0.96,0.01,0.03,-0.02,0.02,-0.07,249
0.96,0.01,0.03,-0.02,-0.00,-0.06,249
0.96,0.01,0.03,0.01,0.03,-0.02,249
0.96,0.01,0.03,0.00,0.02,-0.01,249
0.96,0.01,0.03,-0.01,0.01,-0.02,249
0.96,0.01,0.03,0.01,0.00,-0.02,249
0.96,0.01,0.03,-0.04,-0.02,-0.02,249
0.96,0.01,0.03,-0.02,-0.00,0.02,249
0.96,0.01,0.03,0.03,-0.00,0.06,249
0.96,0.01,0.03,0.04,-0.02,0.07,249
0.96,0.01,0.03,0.02,-0.01,0.07,249
0.96,0.01,0.03,0.01,-0.01,0.06,249
0.96,0.01,0.03,0.02,-0.02,0.04,249
0.96,0.01,0.03,0.02,-0.00,-0.02,249
0.96,0.01,0.03,0.02,-0.01,-0.01,249
0.96,0.01,0.03,0.00,-0.03,0.04,249
0.96,0.01,0.03,-0.00,-0.01,0.04,249
0.96,0.01,0.03,0.00,-0.01,0.03,249
0.96,0.01,0.03,0.01,-0.02,-0.01,249
0.96,0.01,0.03,0.04,-0.04,0.01,249
0.96,0.01,0.03,0.01,-0.08,0.04,249
0.96,0.01,0.03,-0.02,-0.06,0.01,249
0.96,0.01,0.03,0.01,-0.05,0.02,249
0.96,0.01,0.03,0.01,0.01,0.02,249
0.96,0.01,0.03,-0.01,0.02,-0.01,249
0.96,0.01,0.03,-0.01,-0.04,0.01,249
0.96,0.01,0.03,-0.04,-0.03,0.03,249
0.96,0.01,0.03,-0.04,0.01,-0.02,249
0.96,0.01,0.03,-0.01,0.02,-0.04,249
0.96,0.01,0.03,-0.00,0.02,-0.04,249
0.96,0.01,0.03,-0.01,0.04,-0.01,249
0.96,0.01,0.03,-0.00,0.01,-0.01,250
0.96,0.01,0.03,0.01,-0.07,-0.02,249
0.96,0.01,0.03,0.00,-0.04,-0.04,249
0.96,0.01,0.03,0.01,0.02,-0.06,249
0.96,0.01,0.03,0.04,0.01,-0.01,249
0.96,0.01,0.03,0.03,0.01,-0.02,249
0.96,0.01,0.03,0.02,0.03,-0.05,249
0.96,0.01,0.03,0.02,0.04,-0.06,249
0.96,0.01,0.03,-0.03,0.04,-0.04,249
0.96,0.01,0.03,-0.05,0.03,0.04,249
0.96,0.01,0.03,-0.02,0.02,0.04,249
0.96,0.01,0.03,0.02,0.01,-0.00,249
0.96,0.01,0.03,0.00,-0.02,0.02,249
0.96,0.01,0.03,-0.01,-0.03,0.02,249
0.96,0.01,0.03,-0.02,0.01,-0.00,249
0.96,0.01,0.03,-0.02,0.00,-0.01,249
0.96,0.01,0.03,0.00,-0.01,-0.01,249
0.96,0.01,0.03,0.02,0.02,0.01,249
0.96,0.01,0.03,0.02,0.01,0.05,249
0.96,0.01,0.03,-0.02,-0.01,0.05,249
0.96,0.01,0.03,-0.03,-0.02,0.07,249
0.96,0.01,0.03,-0.02,-0.02,0.07,249
0.96,0.01,0.03,-0.01,0.00,0.04,249
0.96,0.01,0.03,0.01,0.01,0.01,249
0.96,0.01,0.03,0.02,-0.02,-0.01,249
0.96,0.01,0.03,-0.03,-0.05,-0.05,249
0.96,0.01,0.03,-0.03,-0.02,-0.07,249
0.96,0.01,0.03,0.00,0.03,-0.06,249
0.96,0.01,0.03,-0.01,0.01,-0.03,249
0.96,0.01,0.03,0.00,-0.02,-0.01,249
0.96,0.01,0.03,-0.01,-0.01,-0.08,249
0.96,0.01,0.03,0.01,-0.03,-0.07,249
0.96,0.01,0.03,0.02,0.02,-0.04,249
0.96,0.01,0.03,0.02,0.02,-0.05,249
0.96,0.01,0.03,0.00,-0.02,-0.01,249
0.96,0.01,0.03,0.02,0.01,-0.01,249
0.96,0.01,0.03,0.04,0.04,-0.04,249
0.96,0.01,0.03,0.00,0.01,-0.01,249
0.96,0.01,0.03,-0.02,-0.01,0.03,249
0.96,0.01,0.03,-0.02,0.01,0.02,249
0.96,0.01,0.03,0.00,0.02,0.00,249
0.96,0.01,0.03,-0.02,0.02,0.02,249
0.96,0.01,0.03,-0.00,-0.00,0.05,249
0.96,0.01,0.03,-0.01,-0.01,0.07,249
0.96,0.01,0.03,-0.02,0.01,0.05,249
0.96,0.01,0.03,0.02,-0.02,0.03,249
0.96,0.01,0.03,0.00,-0.03,0.05,249
0.96,0.01,0.03,0.01,-0.01,0.07,249
0.96,0.01,0.03,0.04,0.01,0.05,249
0.96,0.01,0.03,0.02,0.00,0.01,249
0.96,0.01,0.03,-0.01,-0.02,0.03,249
0.96,0.01,0.03,0.02,-0.03,0.01,249
0.96,0.01,0.03,0.00,-0.02,0.02,249
0.96,0.01,0.03,-0.02,-0.01,0.02,249
0.96,0.01,0.03,-0.01,-0.02,-0.01,249
0.96,0.01,0.03,0.00,-0.00,0.01,249
0.96,0.01,0.03,-0.01,0.03,0.01,249
0.96,0.01,0.03,-0.01,0.01,-0.01,249
0.96,0.01,0.03,-0.02,-0.02,-0.01,249
0.96,0.01,0.03,-0.03,0.02,0.02,249
0.96,0.01,0.03,-0.06,0.01,-0.01,249
0.96,0.01,0.03,-0.05,0.02,-0.04,249
0.96,0.01,0.03,-0.00,0.02,-0.02,249
0.96,0.01,0.03,-0.02,-0.01,-0.04,249
0.96,0.01,0.03,-0.05,-0.04,-0.07,249
0.96,0.01,0.03,-0.04,-0.01,-0.04,249
0.96,0.01,0.03,-0.01,0.00,0.01,249
0.96,0.01,0.03,0.00,-0.02,-0.04,249
0.96,0.01,0.03,-0.01,0.01,-0.07,249
0.96,0.01,0.03,0.02,-0.00,-0.04,249
0.96,0.01,0.03,0.04,-0.01,-0.02,249
0.96,0.01,0.03,-0.01,0.01,0.01,249
0.96,0.01,0.03,-0.04,-0.03,0.04,249
0.96,0.01,0.03,-0.00,-0.04,0.02,249
0.96,0.01,0.03,0.01,-0.01,0.01,249
0.96,0.01,0.03,0.03,0.00,-0.01,249
0.96,0.01,0.03,0.05,-0.00,0.03,249
0.96,0.01,0.03,0.00,-0.01,0.02,249
0.96,0.01,0.03,-0.04,-0.01,-0.02,249
0.96,0.01,0.03,0.04,0.01,-0.01,249
0.96,0.01,0.03,0.04,-0.01,0.01,249
0.96,0.01,0.03,-0.02,0.01,0.02,249
0.96,0.01,0.03,-0.01,0.05,0.04,249
0.96,0.01,0.03,-0.02,0.07,0.03,249
0.96,0.01,0.03,0.00,0.02,-0.00,249
0.96,0.01,0.03,0.02,-0.05,0.01,249
0.96,0.01,0.03,-0.00,-0.05,0.01,249
0.96,0.01,0.03,0.00,0.02,0.01,249
0.96,0.01,0.03,0.00,0.03,0.03,249
0.96,0.01,0.03,-0.03,0.03,0.04,249
0.96,0.01,0.03,-0.02,0.03,0.04,249
0.96,0.01,0.03,0.01,-0.01,-0.00,249
0.96,0.01,0.03,0.01,-0.01,-0.05,249
0.96,0.01,0.03,0.04,0.02,-0.02,249
0.96,0.01,0.03,0.07,0.04,0.01,249
0.96,0.01,0.03,0.07,0.03,-0.01,249
0.96,0.01,0.03,0.04,-0.00,0.01,249
0.96,0.01,0.03,0.01,-0.01,0.02,249
0.96,0.01,0.03,-0.02,0.01,0.01,249
0.96,0.01,0.03,0.00,0.01,0.01,249
0.96,0.01,0.03,0.00,-0.02,0.02,249
0.96,0.01,0.03,-0.01,-0.01,0.06,249
0.96,0.01,0.03,0.01,-0.02,0.05,249
0.96,0.01,0.03,0.02,-0.04,0.04,249
0.96,0.01,0.03,-0.01,-0.02,0.04,249
0.96,0.01,0.03,-0.03,0.02,0.01,249
0.96,0.01,0.03,0.00,0.03,0.01,249
0.96,0.01,0.03,0.01,0.02,-0.01,249
0.96,0.01,0.03,0.02,-0.03,-0.02,249
0.96,0.01,0.03,0.05,-0.04,-0.03,249
0.96,0.01,0.03,0.04,-0.01,-0.02,249
0.96,0.01,0.03,0.02,-0.01,0.04,249
0.96,0.01,0.03,0.02,0.02,0.02,249
0.96,0.01,0.03,0.02,0.01,-0.02,249
0.96,0.01,0.03,0.04,-0.04,0.01,249
0.96,0.01,0.03,0.02,-0.02,0.04,250
0.96,0.01,0.03,0.02,-0.01,0.02,249
0.96,0.01,0.03,0.02,-0.01,0.02,249
0.96,0.01,0.03,0.00,0.01,0.02,249
0.96,0.01,0.03,-0.01,0.03,-0.01,249
0.96,0.01,0.03,-0.01,0.02,-0.04,249
0.96,0.01,0.03,0.01,0.01,-0.02,249
0.96,0.01,0.03,0.01,-0.01,-0.03,249
0.96,0.01,0.03,0.00,-0.02,-0.04,249
0.96,0.01,0.03,0.01,0.02,-0.02,249
0.96,0.01,0.03,0.01,0.02,-0.04,249
0.96,0.01,0.03,-0.01,-0.02,-0.02,249
0.96,0.01,0.03,-0.02,-0.03,-0.01,249
0.96,0.01,0.03,-0.01,-0.00,-0.03,249
0.96,0.01,0.03,-0.03,0.02,-0.02,249
0.96,0.01,0.03,-0.03,-0.01,-0.03,249
0.96,0.01,0.03,0.01,-0.03,-0.04,249
0.96,0.01,0.03,0.01,-0.00,-0.04,249
0.96,0.01,0.03,0.00,-0.01,-0.00,249
0.96,0.01,0.03,0.05,-0.04,-0.02,249
0.96,0.01,0.03,0.04,-0.02,0.00,249
0.96,0.01,0.03,0.02,0.02,-0.00,249
0.96,0.01,0.03,0.00,-0.01,-0.06,249
0.96,0.01,0.03,0.01,0.00,-0.03,249
0.96,0.01,0.03,0.01,0.01,0.01,249
0.96,0.01,0.03,-0.03,-0.01,0.04,249
0.96,0.01,0.03,-0.03,-0.00,0.01,249
0.96,0.01,0.03,-0.01,-0.02,0.01,249
0.96,0.01,0.03,0.02,-0.01,0.04,249
0.96,0.01,0.03,0.00,-0.00,0.04,249
0.96,0.01,0.03,0.00,-0.03,0.06,249
0.96,0.01,0.03,0.03,-0.02,0.05,249
0.96,0.01,0.03,0.03,0.01,-0.02,249
0.96,0.01,0.03,0.03,0.01,-0.04,249
0.96,0.01,0.03,0.04,-0.01,0.02,249
0.96,0.01,0.03,0.02,-0.03,0.05,249
0.96,0.01,0.03,-0.00,-0.04,0.03,249
0.96,0.01,0.03,-0.03,-0.02,0.02,249
0.96,0.01,0.03,-0.01,0.00,-0.02,249
0.96,0.01,0.03,0.02,-0.02,-0.02,249
0.96,0.01,0.03,0.01,-0.01,-0.02,249
0.96,0.01,0.03,0.01,0.02,-0.00,249
0.96,0.01,0.03,-0.01,0.02,-0.00,249
0.96,0.01,0.03,-0.01,0.00,-0.04,249
0.96,0.01,0.03,0.00,-0.01,-0.03,249
0.96,0.01,0.03,0.00,-0.01,0.01,249
0.96,0.01,0.03,0.03,0.01,0.01,249
0.96,0.01,0.03,0.02,-0.01,-0.01,249
0.96,0.01,0.03,0.02,-0.04,-0.01,249
0.96,0.01,0.03,0.00,-0.02,-0.03,249
0.96,0.01,0.03,-0.01,0.01,-0.02,249
0.96,0.01,0.03,0.03,0.01,-0.01,249
0.96,0.01,0.03,0.00,-0.01,-0.00,249
0.96,0.01,0.03,0.00,0.01,0.01,249
0.96,0.01,0.03,0.02,0.02,0.05,249
0.96,0.01,0.03,0.00,0.03,0.06,249
0.96,0.01,0.03,0.00,0.02,0.04,249
0.96,0.01,0.03,-0.03,0.04,0.03,249
0.96,0.01,0.03,-0.05,0.03,0.05,249
0.96,0.01,0.03,-0.06,0.01,0.06,249
0.96,0.01,0.03,-0.01,0.03,0.04,249
0.96,0.01,0.03,0.00,0.04,0.05,249
0.96,0.01,0.03,0.02,0.02,0.05,249
0.96,0.01,0.03,0.04,0.01,0.03,249
0.96,0.01,0.03,-0.05,0.00,0.01,249
0.96,0.01,0.03,-0.05,-0.03,-0.02,249
0.96,0.01,0.03,0.00,-0.01,-0.03,249
0.96,0.01,0.03,0.01,0.02,0.02,249
0.96,0.01,0.03,0.03,0.02,0.00,249
0.96,0.01,0.03,0.02,0.03,-0.03,249
0.96,0.01,0.03,-0.01,0.02,-0.02,249
0.96,0.01,0.03,0.01,0.00,-0.03,249
0.96,0.01,0.03,0.02,0.01,-0.02,249
0.96,0.01,0.03,-0.01,-0.00,-0.03,249
0.96,0.01,0.03,-0.01,-0.00,-0.04,249
0.96,0.01,0.03,0.02,0.01,-0.03,249
0.96,0.01,0.03,0.01,0.02,0.01,249
0.96,0.01,0.03,0.00,0.00,0.00,249
0.96,0.01,0.03,0.01,-0.01,-0.06,249
0.96,0.01,0.03,-0.01,-0.03,-0.07,249
0.96,0.01,0.03,-0.01,-0.03,-0.03,249
0.96,0.01,0.03,-0.02,-0.02,-0.01,249
0.96,0.01,0.03,0.00,-0.02,-0.01,249
0.96,0.01,0.03,0.02,-0.01,-0.04,249
0.96,0.01,0.03,-0.00,0.01,-0.04,249
0.96,0.01,0.03,0.00,0.01,0.00,249
0.96,0.01,0.03,-0.01,0.02,0.01,249
0.96,0.01,0.03,-0.01,-0.00,0.02,249
0.96,0.01,0.03,0.04,-0.02,0.05,249
0.96,0.01,0.03,0.04,0.02,0.02,249
0.96,0.01,0.03,0.00,-0.01,-0.04,249
0.96,0.01,0.03,-0.02,-0.03,-0.02,249
0.96,0.01,0.03,-0.02,-0.01,-0.01,249
0.96,0.01,0.03,-0.02,-0.02,0.01,249
0.96,0.01,0.03,-0.04,-0.02,0.03,249
0.96,0.01,0.03,-0.00,0.03,0.02,249
0.96,0.01,0.03,0.00,0.04,0.00,249
0.96,0.01,0.03,-0.00,-0.01,-0.02,249
0.96,0.01,0.03,0.01,-0.03,-0.03,249
0.96,0.01,0.03,-0.01,-0.01,-0.05,249
0.96,0.01,0.03,0.00,0.01,-0.06,249
0.96,0.01,0.03,0.01,0.04,-0.02,249
0.96,0.01,0.03,-0.03,0.03,-0.00,249
0.96,0.01,0.03,-0.05,-0.01,-0.02,249
0.96,0.01,0.03,-0.02,-0.01,-0.05,249
0.96,0.01,0.03,-0.03,0.01,-0.08,249
0.96,0.01,0.03,-0.03,0.02,-0.06,249
0.96,0.01,0.03,-0.01,-0.02,-0.04,249
0.96,0.01,0.03,-0.01,-0.01,-0.04,249
0.96,0.01,0.03,-0.03,0.01,-0.04,249
0.96,0.01,0.03,-0.05,0.02,-0.02,249
0.96,0.01,0.03,-0.03,0.03,-0.02,249
0.96,0.01,0.03,-0.03,0.01,-0.01,249
0.96,0.01,0.03,-0.01,0.02,0.02,249
0.96,0.01,0.03,-0.01,0.02,0.03,249
0.96,0.01,0.03,-0.03,0.01,0.03,249
0.96,0.01,0.03,-0.01,-0.01,-0.01,249
0.96,0.01,0.03,-0.03,-0.02,0.00,249
0.96,0.01,0.03,-0.03,-0.02,0.00,249
0.96,0.01,0.03,0.01,-0.01,-0.01,249
0.96,0.01,0.03,-0.01,0.01,0.02,249
0.96,0.01,0.03,-0.01,0.02,0.07,249
0.96,0.01,0.03,0.00,0.01,0.07,249
0.96,0.01,0.03,-0.00,0.01,0.03,249
0.96,0.01,0.03,0.00,0.01,0.01,249
0.96,0.01,0.03,-0.01,-0.00,0.04,249
0.96,0.01,0.03,-0.03,0.01,0.02,249
0.96,0.01,0.03,-0.01,0.03,0.00,249
